
time,gFx,gFy,gFz,ax,ay,az,wx,wy,wz,Latitude,Longitude,Speed (m/s),
0.0490,0.0408,0.4026,0.8983,0.0000,0.0000,0.0000,0.0000,0.0000,0.0000,0.00000000,0.00000000,0.00000000,
0.0490,0.0520,0.3960,0.9073,0.0000,0.0000,0.0000,0.0000,0.0000,0.0000,49.25899708,-122.75420307,0.83999997,
0.0500,0.0669,0.3877,0.9154,0.0000,0.0000,0.0000,0.0000,0.0000,0.0000,49.25899708,-122.75420307,0.83999997,
0.0500,0.0848,0.3831,0.9261,0.0000,0.0000,0.0000,0.0000,0.0000,0.0000,49.25899708,-122.75420307,0.83999997,
0.0500,0.0970,0.3760,0.9386,0.0000,0.0000,0.0000,0.0000,0.0000,0.0000,49.25899708,-122.75420307,0.83999997,
0.0500,0.1075,0.3704,0.9535,0.0000,0.0000,0.0000,0.0000,0.0000,0.0000,49.25899708,-122.75420307,0.83999997,
0.0500,0.1187,0.3684,0.9684,0.0000,0.0000,0.0000,0.0000,0.0000,0.0000,49.25899708,-122.75420307,0.83999997,
0.0500,0.1302,0.3657,0.9811,0.0000,0.0000,0.0000,0.0000,0.0000,0.0000,49.25899708,-122.75420307,0.83999997,
0.0500,0.1417,0.3662,0.9911,0.0000,0.0000,0.0000,0.0000,0.0000,0.0000,49.25899708,-122.75420307,0.83999997,
0.0500,0.1490,0.3650,0.9970,0.0000,0.0000,0.0000,0.0000,0.0000,0.0000,49.25899708,-122.75420307,0.83999997,
0.0500,0.1583,0.3625,0.9975,0.0000,0.0000,0.0000,0.0000,0.0000,0.0000,49.25899708,-122.75420307,0.83999997,
0.0500,0.1654,0.3606,0.9962,0.0000,0.0000,0.0000,0.0000,0.0000,0.0000,49.25899708,-122.75420307,0.83999997,
0.0500,0.1676,0.3613,0.9931,0.0000,0.0000,0.0000,0.0000,0.0000,0.0000,49.25899708,-122.75420307,0.83999997,
0.0500,0.1656,0.3633,0.9870,0.0000,0.0000,0.0000,0.0000,0.0000,0.0000,49.25899708,-122.75420307,0.83999997,
0.0510,0.1625,0.3657,0.9806,0.0000,0.0000,0.0000,0.0000,0.0000,0.0000,49.25899708,-122.75420307,0.83999997,
0.0580,0.1549,0.3679,0.9723,0.0000,0.0000,0.0000,0.0000,0.0000,0.0000,49.25899708,-122.75420307,0.83999997,
0.0590,0.1478,0.3718,0.9642,0.0000,0.0000,0.0000,0.0000,0.0000,0.0000,49.25899708,-122.75420307,0.83999997,
0.0600,0.1439,0.3735,0.9550,0.0000,0.0000,0.0000,0.0000,0.0000,0.0000,49.25899708,-122.75420307,0.83999997,
0.0600,0.1414,0.3728,0.9457,0.0000,0.0000,0.0000,0.0000,0.0000,0.0000,49.25899708,-122.75420307,0.83999997,
0.0610,0.1388,0.3686,0.9393,0.0000,0.0000,0.0000,0.0000,0.0000,0.0000,49.25899708,-122.75420307,0.83999997,
0.0650,0.1351,0.3645,0.9325,0.0000,0.0000,0.0000,0.0000,0.0000,0.0000,49.25899708,-122.75420307,0.83999997,
0.0660,0.1327,0.3611,0.9239,0.0000,0.0000,0.0000,0.0000,0.0000,0.0000,49.25899708,-122.75420307,0.83999997,
0.0670,0.1297,0.3542,0.9164,0.0000,0.0000,0.0000,0.0000,0.0000,0.0000,49.25899708,-122.75420307,0.83999997,
0.0700,0.1256,0.3481,0.9078,0.0000,0.0000,0.0000,0.0000,0.0000,0.0000,49.25899708,-122.75420307,0.83999997,
0.0740,0.1178,0.3432,0.8995,0.0000,0.0000,0.0000,0.0000,0.0000,0.0000,49.25899708,-122.75420307,0.83999997,
0.0760,0.1085,0.3376,0.8919,0.0000,0.0000,0.0000,0.0000,0.0000,0.0000,49.25899708,-122.75420307,0.83999997,
0.0790,0.0992,0.3364,0.8861,0.0000,0.0000,0.0000,0.0000,0.0000,0.0000,49.25899708,-122.75420307,0.83999997,
0.0800,0.0899,0.3325,0.8807,0.0000,0.0000,0.0000,0.0000,0.0000,0.0000,49.25899708,-122.75420307,0.83999997,
0.0830,0.0792,0.3276,0.8790,0.0000,0.0000,0.0000,0.0000,0.0000,0.0000,49.25899708,-122.75420307,0.83999997,
0.0850,0.0716,0.3254,0.8775,0.0000,0.0000,0.0000,0.0000,0.0000,0.0000,49.25899708,-122.75420307,0.83999997,
0.0880,0.0623,0.3234,0.8748,0.0000,0.0000,0.0000,0.0000,0.0000,0.0000,49.25899708,-122.75420307,0.83999997,
0.0930,0.0530,0.3193,0.8741,0.0000,0.0000,0.0000,0.0000,0.0000,0.0000,49.25899708,-122.75420307,0.83999997,
0.0940,0.0452,0.3147,0.8724,0.0000,0.0000,0.0000,0.0000,0.0000,0.0000,49.25899708,-122.75420307,0.83999997,
0.0960,0.0401,0.3115,0.8677,0.0000,0.0000,0.0000,0.0000,0.0000,0.0000,49.25899708,-122.75420307,0.83999997,
0.0980,0.0313,0.3088,0.8604,0.0000,0.0000,0.0000,0.0000,0.0000,0.0000,49.25899708,-122.75420307,0.83999997,
0.1010,0.0259,0.3073,0.8514,0.0000,0.0000,0.0000,0.0000,0.0000,0.0000,49.25899708,-122.75420307,0.83999997,
0.1040,0.0200,0.3073,0.8416,0.0000,0.0000,0.0000,0.0000,0.0000,0.0000,49.25899708,-122.75420307,0.83999997,
0.1060,0.0200,0.3073,0.8416,0.0000,0.0000,0.0000,0.0597,0.0907,-0.2084,49.25899708,-122.75420307,0.83999997,
0.1070,0.0134,0.3073,0.8296,0.0000,0.0000,0.0000,0.0597,0.0907,-0.2084,49.25899708,-122.75420307,0.83999997,
0.1090,0.0068,0.3059,0.8172,0.0000,0.0000,0.0000,0.0597,0.0907,-0.2084,49.25899708,-122.75420307,0.83999997,
0.1110,0.0010,0.3049,0.8050,0.0000,0.0000,0.0000,0.0597,0.0907,-0.2084,49.25899708,-122.75420307,0.83999997,
0.1140,-0.0061,0.3029,0.7913,0.0000,0.0000,0.0000,0.0597,0.0907,-0.2084,49.25899708,-122.75420307,0.83999997,
0.1160,-0.0120,0.3007,0.7827,0.0000,0.0000,0.0000,0.0597,0.0907,-0.2084,49.25899708,-122.75420307,0.83999997,
0.1190,-0.0203,0.2983,0.7756,0.0000,0.0000,0.0000,0.0597,0.0907,-0.2084,49.25899708,-122.75420307,0.83999997,
0.1210,-0.0283,0.2968,0.7703,0.0000,0.0000,0.0000,0.0597,0.0907,-0.2084,49.25899708,-122.75420307,0.83999997,
0.1240,-0.0359,0.2973,0.7656,0.0000,0.0000,0.0000,0.0597,0.0907,-0.2084,49.25899708,-122.75420307,0.83999997,
0.1260,-0.0408,0.2973,0.7612,0.0000,0.0000,0.0000,0.0597,0.0907,-0.2084,49.25899708,-122.75420307,0.83999997,
0.1290,-0.0447,0.2998,0.7568,0.0000,0.0000,0.0000,0.0597,0.0907,-0.2084,49.25899708,-122.75420307,0.83999997,
0.1310,-0.0486,0.3002,0.7524,0.0000,0.0000,0.0000,0.0597,0.0907,-0.2084,49.25899708,-122.75420307,0.83999997,
0.1340,-0.0515,0.3015,0.7534,0.0000,0.0000,0.0000,0.0597,0.0907,-0.2084,49.25899708,-122.75420307,0.83999997,
0.1370,-0.0552,0.3037,0.7578,0.0000,0.0000,0.0000,0.0597,0.0907,-0.2084,49.25899708,-122.75420307,0.83999997,
0.1380,-0.0574,0.3083,0.7615,0.0000,0.0000,0.0000,0.0597,0.0907,-0.2084,49.25899708,-122.75420307,0.83999997,
0.1420,-0.0572,0.3147,0.7639,0.0000,0.0000,0.0000,0.0597,0.0907,-0.2084,49.25899708,-122.75420307,0.83999997,
0.1440,-0.0564,0.3215,0.7661,0.0000,0.0000,0.0000,0.0597,0.0907,-0.2084,49.25899708,-122.75420307,0.83999997,
0.1470,-0.0530,0.3310,0.7708,0.0000,0.0000,0.0000,0.0597,0.0907,-0.2084,49.25899708,-122.75420307,0.83999997,
0.1490,-0.0501,0.3371,0.7752,0.0000,0.0000,0.0000,0.0597,0.0907,-0.2084,49.25899708,-122.75420307,0.83999997,
0.1510,-0.0462,0.3413,0.7849,0.0000,0.0000,0.0000,0.0597,0.0907,-0.2084,49.25899708,-122.75420307,0.83999997,
0.1540,-0.0415,0.3457,0.7993,0.0000,0.0000,0.0000,0.0597,0.0907,-0.2084,49.25899708,-122.75420307,0.83999997,
0.1560,-0.0379,0.3481,0.8184,0.0000,0.0000,0.0000,0.0597,0.0907,-0.2084,49.25899708,-122.75420307,0.83999997,
0.1600,-0.0332,0.3511,0.8382,0.0000,0.0000,0.0000,0.0597,0.0907,-0.2084,49.25899708,-122.75420307,0.83999997,
0.1620,-0.0283,0.3515,0.8575,0.0000,0.0000,0.0000,0.0597,0.0907,-0.2084,49.25899708,-122.75420307,0.83999997,
0.1640,-0.0232,0.3515,0.8738,0.0000,0.0000,0.0000,0.0597,0.0907,-0.2084,49.25899708,-122.75420307,0.83999997,
0.1670,-0.0147,0.3501,0.8892,0.0000,0.0000,0.0000,0.0597,0.0907,-0.2084,49.25899708,-122.75420307,0.83999997,
0.1690,-0.0098,0.3476,0.9061,0.0000,0.0000,0.0000,0.0597,0.0907,-0.2084,49.25899708,-122.75420307,0.83999997,
0.1730,-0.0044,0.3464,0.9220,0.0000,0.0000,0.0000,0.0597,0.0907,-0.2084,49.25899708,-122.75420307,0.83999997,
0.1760,-0.0022,0.3469,0.9383,0.0000,0.0000,0.0000,0.0597,0.0907,-0.2084,49.25899708,-122.75420307,0.83999997,
0.1770,-0.0022,0.3469,0.9383,0.0000,0.0000,0.0000,-0.2480,-0.1196,-0.1449,49.25899708,-122.75420307,0.83999997,
0.1780,-0.0024,0.3464,0.9542,0.0000,0.0000,0.0000,-0.2480,-0.1196,-0.1449,49.25899708,-122.75420307,0.83999997,
0.1790,-0.0049,0.3474,0.9691,0.0000,0.0000,0.0000,-0.2480,-0.1196,-0.1449,49.25899708,-122.75420307,0.83999997,
0.1820,-0.0049,0.3471,0.9828,0.0000,0.0000,0.0000,-0.2480,-0.1196,-0.1449,49.25899708,-122.75420307,0.83999997,
0.1840,-0.0086,0.3484,0.9979,0.0000,0.0000,0.0000,-0.2480,-0.1196,-0.1449,49.25899708,-122.75420307,0.83999997,
0.1870,-0.0122,0.3467,1.0158,0.0000,0.0000,0.0000,-0.2480,-0.1196,-0.1449,49.25899708,-122.75420307,0.83999997,
0.1900,-0.0159,0.3469,1.0343,0.0000,0.0000,0.0000,-0.2480,-0.1196,-0.1449,49.25899708,-122.75420307,0.83999997,
0.1910,-0.0159,0.3469,1.0343,0.0000,0.0000,0.0000,-0.2480,-0.1196,-0.1449,49.25899708,-122.75420307,0.83999997,
0.1930,-0.0239,0.3496,1.0514,0.0000,0.0000,0.0000,-0.2480,-0.1196,-0.1449,49.25899708,-122.75420307,0.83999997,
0.1950,-0.0313,0.3533,1.0676,0.0000,0.0000,0.0000,-0.2480,-0.1196,-0.1449,49.25899708,-122.75420307,0.83999997,
0.1980,-0.0384,0.3559,1.0795,0.0000,0.0000,0.0000,-0.2480,-0.1196,-0.1449,49.25899708,-122.75420307,0.83999997,
0.1990,-0.0423,0.3569,1.0854,0.0000,0.0000,0.0000,-0.2480,-0.1196,-0.1449,49.25899708,-122.75420307,0.83999997,
0.2030,-0.0447,0.3555,1.0859,0.0000,0.0000,0.0000,-0.2480,-0.1196,-0.1449,49.25899708,-122.75420307,0.83999997,
0.2040,-0.0467,0.3545,1.0805,0.0000,0.0000,0.0000,-0.2480,-0.1196,-0.1449,49.25899708,-122.75420307,0.83999997,
0.2070,-0.0464,0.3518,1.0725,0.0000,0.0000,0.0000,-0.2480,-0.1196,-0.1449,49.25899708,-122.75420307,0.83999997,
0.2100,-0.0476,0.3508,1.0598,0.0000,0.0000,0.0000,-0.2480,-0.1196,-0.1449,49.25899708,-122.75420307,0.83999997,
0.2140,-0.0467,0.3476,1.0431,0.0000,0.0000,0.0000,-0.2480,-0.1196,-0.1449,49.25899708,-122.75420307,0.83999997,
0.2150,-0.0486,0.3467,1.0253,0.0000,0.0000,0.0000,-0.2480,-0.1196,-0.1449,49.25899708,-122.75420307,0.83999997,
0.2170,-0.0515,0.3476,1.0045,0.0000,0.0000,0.0000,-0.2480,-0.1196,-0.1449,49.25899708,-122.75420307,0.83999997,
0.2200,-0.0601,0.3515,0.9826,0.0000,0.0000,0.0000,-0.2480,-0.1196,-0.1449,49.25899708,-122.75420307,0.83999997,
0.2220,-0.0723,0.3586,0.9608,0.0000,0.0000,0.0000,-0.2480,-0.1196,-0.1449,49.25899708,-122.75420307,0.83999997,
0.2260,-0.0870,0.3682,0.9383,0.0000,0.0000,0.0000,-0.2480,-0.1196,-0.1449,49.25899708,-122.75420307,0.83999997,
0.2290,-0.1011,0.3765,0.9149,0.0000,0.0000,0.0000,-0.2480,-0.1196,-0.1449,49.25899708,-122.75420307,0.83999997,
0.2310,-0.1138,0.3865,0.8912,0.0000,0.0000,0.0000,-0.2480,-0.1196,-0.1449,49.25899708,-122.75420307,0.83999997,
0.2340,-0.1209,0.3909,0.8663,0.0000,0.0000,0.0000,-0.2480,-0.1196,-0.1449,49.25899708,-122.75420307,0.83999997,
0.2360,-0.1246,0.3931,0.8431,0.0000,0.0000,0.0000,-0.2480,-0.1196,-0.1449,49.25899708,-122.75420307,0.83999997,
0.2380,-0.1292,0.3975,0.8199,0.0000,0.0000,0.0000,-0.2480,-0.1196,-0.1449,49.25899708,-122.75420307,0.83999997,
0.2410,-0.1346,0.3958,0.7986,0.0000,0.0000,0.0000,-0.2480,-0.1196,-0.1449,49.25899708,-122.75420307,0.83999997,
0.2430,-0.1385,0.3875,0.7808,0.0000,0.0000,0.0000,-0.2480,-0.1196,-0.1449,49.25899708,-122.75420307,0.83999997,
0.2450,-0.1412,0.3769,0.7627,0.0000,0.0000,0.0000,-0.2480,-0.1196,-0.1449,49.25899708,-122.75420307,0.83999997,
0.2480,-0.1412,0.3769,0.7627,0.0000,0.0000,0.0000,0.0210,-0.2580,-0.1492,49.25899708,-122.75420307,0.83999997,
0.2480,-0.1297,0.3564,0.7453,0.0000,0.0000,0.0000,0.0210,-0.2580,-0.1492,49.25899708,-122.75420307,0.83999997,
0.2500,-0.1187,0.3386,0.7339,0.0000,0.0000,0.0000,0.0210,-0.2580,-0.1492,49.25899708,-122.75420307,0.83999997,
0.2540,-0.1085,0.3347,0.7309,0.0000,0.0000,0.0000,0.0210,-0.2580,-0.1492,49.25899708,-122.75420307,0.83999997,
0.2560,-0.0916,0.3445,0.7373,0.0000,0.0000,0.0000,0.0210,-0.2580,-0.1492,49.25899708,-122.75420307,0.83999997,
0.2610,-0.0711,0.3650,0.7490,0.0000,0.0000,0.0000,0.0210,-0.2580,-0.1492,49.25899708,-122.75420307,0.83999997,
0.2630,-0.0572,0.3892,0.7676,0.0000,0.0000,0.0000,0.0210,-0.2580,-0.1492,49.25899708,-122.75420307,0.83999997,
0.2640,-0.0572,0.3892,0.7676,-0.5511,-0.0219,-0.1440,0.0210,-0.2580,-0.1492,49.25899708,-122.75420307,0.83999997,
0.2650,-0.0503,0.4155,0.7866,-0.5511,-0.0219,-0.1440,0.0210,-0.2580,-0.1492,49.25899708,-122.75420307,0.83999997,
0.2650,-0.0552,0.4402,0.8008,-0.5511,-0.0219,-0.1440,0.0210,-0.2580,-0.1492,49.25899708,-122.75420307,0.83999997,
0.2680,-0.0689,0.4647,0.8101,-0.5511,-0.0219,-0.1440,0.0210,-0.2580,-0.1492,49.25899708,-122.75420307,0.83999997,
0.2710,-0.0821,0.4835,0.8155,-0.5511,-0.0219,-0.1440,0.0210,-0.2580,-0.1492,49.25899708,-122.75420307,0.83999997,
0.2730,-0.0921,0.4942,0.8194,-0.5511,-0.0219,-0.1440,0.0210,-0.2580,-0.1492,49.25899708,-122.75420307,0.83999997,
0.2760,-0.0972,0.5059,0.8235,-0.5511,-0.0219,-0.1440,0.0210,-0.2580,-0.1492,49.25899708,-122.75420307,0.83999997,
0.2780,-0.0965,0.5162,0.8294,-0.5511,-0.0219,-0.1440,0.0210,-0.2580,-0.1492,49.25899708,-122.75420307,0.83999997,
0.2810,-0.0894,0.5250,0.8411,-0.5511,-0.0219,-0.1440,0.0210,-0.2580,-0.1492,49.25899708,-122.75420307,0.83999997,
0.2830,-0.0821,0.5357,0.8550,-0.5511,-0.0219,-0.1440,0.0210,-0.2580,-0.1492,49.25899708,-122.75420307,0.83999997,
0.2860,-0.0728,0.5431,0.8716,-0.5511,-0.0219,-0.1440,0.0210,-0.2580,-0.1492,49.25899708,-122.75420307,0.83999997,
0.2890,-0.0642,0.5480,0.8912,-0.5511,-0.0219,-0.1440,0.0210,-0.2580,-0.1492,49.25899708,-122.75420307,0.83999997,
0.2920,-0.0608,0.5524,0.9107,-0.5511,-0.0219,-0.1440,0.0210,-0.2580,-0.1492,49.25899708,-122.75420307,0.83999997,
0.2940,-0.0618,0.5538,0.9286,-0.5511,-0.0219,-0.1440,0.0210,-0.2580,-0.1492,49.25899708,-122.75420307,0.83999997,
0.2960,-0.0638,0.5521,0.9459,-0.5511,-0.0219,-0.1440,0.0210,-0.2580,-0.1492,49.25899708,-122.75420307,0.83999997,
0.2980,-0.0691,0.5516,0.9606,-0.5511,-0.0219,-0.1440,0.0210,-0.2580,-0.1492,49.25899708,-122.75420307,0.83999997,
0.3010,-0.0757,0.5470,0.9721,-0.5511,-0.0219,-0.1440,0.0210,-0.2580,-0.1492,49.25899708,-122.75420307,0.83999997,
0.3040,-0.0806,0.5389,0.9816,-0.5511,-0.0219,-0.1440,0.0210,-0.2580,-0.1492,49.25899708,-122.75420307,0.83999997,
0.3070,-0.0879,0.5269,0.9892,-0.5511,-0.0219,-0.1440,0.0210,-0.2580,-0.1492,49.25899708,-122.75420307,0.83999997,
0.3100,-0.0931,0.5145,0.9957,-0.5511,-0.0219,-0.1440,0.0210,-0.2580,-0.1492,49.25899708,-122.75420307,0.83999997,
0.3130,-0.0994,0.5018,1.0014,-0.5511,-0.0219,-0.1440,0.0210,-0.2580,-0.1492,49.25899708,-122.75420307,0.83999997,
0.3140,-0.1053,0.4874,1.0060,-0.5511,-0.0219,-0.1440,0.0210,-0.2580,-0.1492,49.25899708,-122.75420307,0.83999997,
0.3170,-0.1099,0.4752,1.0102,-0.5511,-0.0219,-0.1440,0.0210,-0.2580,-0.1492,49.25899708,-122.75420307,0.83999997,
0.3200,-0.1099,0.4752,1.0102,-0.5511,-0.0219,-0.1440,-0.3097,-0.1400,-0.1745,49.25899708,-122.75420307,0.83999997,
0.3200,-0.1178,0.4659,1.0150,-0.5511,-0.0219,-0.1440,-0.3097,-0.1400,-0.1745,49.25899708,-122.75420307,0.83999997,
0.3210,-0.1231,0.4576,1.0214,-0.5511,-0.0219,-0.1440,-0.3097,-0.1400,-0.1745,49.25899708,-122.75420307,0.83999997,
0.3240,-0.1180,0.4454,1.0265,-0.5511,-0.0219,-0.1440,-0.3097,-0.1400,-0.1745,49.25899708,-122.75420307,0.83999997,
0.3270,-0.1102,0.4261,1.0329,-0.5511,-0.0219,-0.1440,-0.3097,-0.1400,-0.1745,49.25899708,-122.75420307,0.83999997,
0.3290,-0.1033,0.4068,1.0368,-0.5511,-0.0219,-0.1440,-0.3097,-0.1400,-0.1745,49.25899708,-122.75420307,0.83999997,
0.3330,-0.1033,0.4068,1.0368,-0.7223,0.3395,0.3051,-0.3097,-0.1400,-0.1745,49.25899708,-122.75420307,0.83999997,
0.3340,-0.0989,0.3923,1.0402,-0.7223,0.3395,0.3051,-0.3097,-0.1400,-0.1745,49.25899708,-122.75420307,0.83999997,
0.3350,-0.1009,0.3784,1.0427,-0.7223,0.3395,0.3051,-0.3097,-0.1400,-0.1745,49.25899708,-122.75420307,0.83999997,
0.3370,-0.1119,0.3684,1.0446,-0.7223,0.3395,0.3051,-0.3097,-0.1400,-0.1745,49.25899708,-122.75420307,0.83999997,
0.3390,-0.1258,0.3581,1.0451,-0.7223,0.3395,0.3051,-0.3097,-0.1400,-0.1745,49.25899708,-122.75420307,0.83999997,
0.3420,-0.1383,0.3528,1.0453,-0.7223,0.3395,0.3051,-0.3097,-0.1400,-0.1745,49.25899708,-122.75420307,0.83999997,
0.3440,-0.1483,0.3498,1.0468,-0.7223,0.3395,0.3051,-0.3097,-0.1400,-0.1745,49.25899708,-122.75420307,0.83999997,
0.3480,-0.1520,0.3469,1.0449,-0.7223,0.3395,0.3051,-0.3097,-0.1400,-0.1745,49.25899708,-122.75420307,0.83999997,
0.3500,-0.1578,0.3435,1.0385,-0.7223,0.3395,0.3051,-0.3097,-0.1400,-0.1745,49.25899708,-122.75420307,0.83999997,
0.3520,-0.1598,0.3403,1.0307,-0.7223,0.3395,0.3051,-0.3097,-0.1400,-0.1745,49.25899708,-122.75420307,0.83999997,
0.3540,-0.1588,0.3366,1.0168,-0.7223,0.3395,0.3051,-0.3097,-0.1400,-0.1745,49.25899708,-122.75420307,0.83999997,
0.3580,-0.1490,0.3315,1.0001,-0.7223,0.3395,0.3051,-0.3097,-0.1400,-0.1745,49.25899708,-122.75420307,0.83999997,
0.3600,-0.1400,0.3300,0.9821,-0.7223,0.3395,0.3051,-0.3097,-0.1400,-0.1745,49.25899708,-122.75420307,0.83999997,
0.3630,-0.1307,0.3252,0.9647,-0.7223,0.3395,0.3051,-0.3097,-0.1400,-0.1745,49.25899708,-122.75420307,0.83999997,
0.3650,-0.1265,0.3234,0.9493,-0.7223,0.3395,0.3051,-0.3097,-0.1400,-0.1745,49.25899708,-122.75420307,0.83999997,
0.3670,-0.1239,0.3234,0.9357,-0.7223,0.3395,0.3051,-0.3097,-0.1400,-0.1745,49.25899708,-122.75420307,0.83999997,
0.3690,-0.1239,0.3256,0.9237,-0.7223,0.3395,0.3051,-0.3097,-0.1400,-0.1745,49.25899708,-122.75420307,0.83999997,
0.3740,-0.1221,0.3308,0.9139,-0.7223,0.3395,0.3051,-0.3097,-0.1400,-0.1745,49.25899708,-122.75420307,0.83999997,
0.3750,-0.1300,0.3303,0.9051,-0.7223,0.3395,0.3051,-0.3097,-0.1400,-0.1745,49.25899708,-122.75420307,0.83999997,
0.3790,-0.1368,0.3264,0.8924,-0.7223,0.3395,0.3051,-0.3097,-0.1400,-0.1745,49.25899708,-122.75420307,0.83999997,
0.3800,-0.1417,0.3249,0.8809,-0.7223,0.3395,0.3051,-0.3097,-0.1400,-0.1745,49.25899708,-122.75420307,0.83999997,
0.3830,-0.1456,0.3254,0.8707,-0.7223,0.3395,0.3051,-0.3097,-0.1400,-0.1745,49.25899708,-122.75420307,0.83999997,
0.3850,-0.1456,0.3296,0.8643,-0.7223,0.3395,0.3051,-0.3097,-0.1400,-0.1745,49.25899708,-122.75420307,0.83999997,
0.3870,-0.1468,0.3354,0.8587,-0.7223,0.3395,0.3051,-0.3097,-0.1400,-0.1745,49.25899708,-122.75420307,0.83999997,
0.3900,-0.1522,0.3376,0.8501,-0.7223,0.3395,0.3051,-0.3097,-0.1400,-0.1745,49.25899708,-122.75420307,0.83999997,
0.3910,-0.1522,0.3376,0.8501,-0.7223,0.3395,0.3051,-0.1990,0.1231,-0.0807,49.25899708,-122.75420307,0.83999997,
0.3940,-0.1532,0.3393,0.8426,-0.7223,0.3395,0.3051,-0.1990,0.1231,-0.0807,49.25899708,-122.75420307,0.83999997,
0.3950,-0.1507,0.3469,0.8401,-0.7223,0.3395,0.3051,-0.1990,0.1231,-0.0807,49.25899708,-122.75420307,0.83999997,
0.3980,-0.1476,0.3552,0.8392,-0.7223,0.3395,0.3051,-0.1990,0.1231,-0.0807,49.25899708,-122.75420307,0.83999997,
0.4000,-0.1429,0.3630,0.8387,-0.7223,0.3395,0.3051,-0.1990,0.1231,-0.0807,49.25899708,-122.75420307,0.83999997,
0.4030,-0.1390,0.3684,0.8389,-0.7223,0.3395,0.3051,-0.1990,0.1231,-0.0807,49.25899708,-122.75420307,0.83999997,
0.4030,-0.1390,0.3684,0.8389,-0.5134,1.2836,0.2967,-0.1990,0.1231,-0.0807,49.25899708,-122.75420307,0.83999997,
0.4050,-0.1309,0.3752,0.8411,-0.5134,1.2836,0.2967,-0.1990,0.1231,-0.0807,49.25899708,-122.75420307,0.83999997,
0.4100,-0.1239,0.3806,0.8418,-0.5134,1.2836,0.2967,-0.1990,0.1231,-0.0807,49.25899708,-122.75420307,0.83999997,
0.4110,-0.1170,0.3892,0.8436,-0.5134,1.2836,0.2967,-0.1990,0.1231,-0.0807,49.25899708,-122.75420307,0.83999997,
0.4140,-0.1090,0.3980,0.8523,-0.5134,1.2836,0.2967,-0.1990,0.1231,-0.0807,49.25899708,-122.75420307,0.83999997,
0.4150,-0.1006,0.4028,0.8651,-0.5134,1.2836,0.2967,-0.1990,0.1231,-0.0807,49.25899708,-122.75420307,0.83999997,
0.4180,-0.0904,0.4099,0.8763,-0.5134,1.2836,0.2967,-0.1990,0.1231,-0.0807,49.25899708,-122.75420307,0.83999997,
0.4210,-0.0779,0.4153,0.8861,-0.5134,1.2836,0.2967,-0.1990,0.1231,-0.0807,49.25899708,-122.75420307,0.83999997,
0.4230,-0.0655,0.4192,0.8927,-0.5134,1.2836,0.2967,-0.1990,0.1231,-0.0807,49.25899708,-122.75420307,0.83999997,
0.4260,-0.0555,0.4221,0.8988,-0.5134,1.2836,0.2967,-0.1990,0.1231,-0.0807,49.25899708,-122.75420307,0.83999997,
0.4280,-0.0452,0.4263,0.9049,-0.5134,1.2836,0.2967,-0.1990,0.1231,-0.0807,49.25899708,-122.75420307,0.83999997,
0.4310,-0.0362,0.4300,0.9107,-0.5134,1.2836,0.2967,-0.1990,0.1231,-0.0807,49.25899708,-122.75420307,0.83999997,
0.4340,-0.0237,0.4326,0.9139,-0.5134,1.2836,0.2967,-0.1990,0.1231,-0.0807,49.25899708,-122.75420307,0.83999997,
0.4360,-0.0068,0.4331,0.9137,-0.5134,1.2836,0.2967,-0.1990,0.1231,-0.0807,49.25899708,-122.75420307,0.83999997,
0.4380,0.0081,0.4348,0.9122,-0.5134,1.2836,0.2967,-0.1990,0.1231,-0.0807,49.25899708,-122.75420307,0.83999997,
0.4410,0.0244,0.4361,0.9115,-0.5134,1.2836,0.2967,-0.1990,0.1231,-0.0807,49.25899708,-122.75420307,0.83999997,
0.4430,0.0381,0.4378,0.9090,-0.5134,1.2836,0.2967,-0.1990,0.1231,-0.0807,49.25899708,-122.75420307,0.83999997,
0.4460,0.0476,0.4419,0.9071,-0.5134,1.2836,0.2967,-0.1990,0.1231,-0.0807,49.25899708,-122.75420307,0.83999997,
0.4480,0.0515,0.4458,0.9039,-0.5134,1.2836,0.2967,-0.1990,0.1231,-0.0807,49.25899708,-122.75420307,0.83999997,
0.4520,0.0508,0.4502,0.8995,-0.5134,1.2836,0.2967,-0.1990,0.1231,-0.0807,49.25899708,-122.75420307,0.83999997,
0.4540,0.0479,0.4554,0.8927,-0.5134,1.2836,0.2967,-0.1990,0.1231,-0.0807,49.25899708,-122.75420307,0.83999997,
0.4570,0.0428,0.4568,0.8853,-0.5134,1.2836,0.2967,-0.1990,0.1231,-0.0807,49.25899708,-122.75420307,0.83999997,
0.4590,0.0386,0.4581,0.8773,-0.5134,1.2836,0.2967,-0.1990,0.1231,-0.0807,49.25899708,-122.75420307,0.83999997,
0.4620,0.0352,0.4571,0.8694,-0.5134,1.2836,0.2967,-0.1990,0.1231,-0.0807,49.25899708,-122.75420307,0.83999997,
0.4630,0.0352,0.4571,0.8694,-0.5134,1.2836,0.2967,0.0908,0.1580,0.5028,49.25899708,-122.75420307,0.83999997,
0.4630,0.0344,0.4566,0.8609,-0.5134,1.2836,0.2967,0.0908,0.1580,0.5028,49.25899708,-122.75420307,0.83999997,
0.4670,0.0425,0.4483,0.8504,-0.5134,1.2836,0.2967,0.0908,0.1580,0.5028,49.25899708,-122.75420307,0.83999997,
0.4690,0.0535,0.4407,0.8399,-0.5134,1.2836,0.2967,0.0908,0.1580,0.5028,49.25899708,-122.75420307,0.83999997,
0.4720,0.0511,0.4407,0.8340,-0.5134,1.2836,0.2967,0.0908,0.1580,0.5028,49.25899708,-122.75420307,0.83999997,
0.4740,0.0432,0.4402,0.8306,-0.5134,1.2836,0.2967,0.0908,0.1580,0.5028,49.25899708,-122.75420307,0.83999997,
0.4740,0.0432,0.4402,0.8306,-0.8369,-0.2603,0.3605,0.0908,0.1580,0.5028,49.25899708,-122.75420307,0.83999997,
0.4770,0.0335,0.4417,0.8311,-0.8369,-0.2603,0.3605,0.0908,0.1580,0.5028,49.25899708,-122.75420307,0.83999997,
0.4790,0.0222,0.4456,0.8321,-0.8369,-0.2603,0.3605,0.0908,0.1580,0.5028,49.25899708,-122.75420307,0.83999997,
0.4820,0.0127,0.4483,0.8333,-0.8369,-0.2603,0.3605,0.0908,0.1580,0.5028,49.25899708,-122.75420307,0.83999997,
0.4840,0.0054,0.4480,0.8370,-0.8369,-0.2603,0.3605,0.0908,0.1580,0.5028,49.25899708,-122.75420307,0.83999997,
0.4880,-0.0020,0.4473,0.8409,-0.8369,-0.2603,0.3605,0.0908,0.1580,0.5028,49.25899708,-122.75420307,0.83999997,
0.4890,-0.0120,0.4463,0.8465,-0.8369,-0.2603,0.3605,0.0908,0.1580,0.5028,49.25899708,-122.75420307,0.83999997,
0.4930,-0.0203,0.4451,0.8528,-0.8369,-0.2603,0.3605,0.0908,0.1580,0.5028,49.25899708,-122.75420307,0.83999997,
0.4950,-0.0281,0.4427,0.8587,-0.8369,-0.2603,0.3605,0.0908,0.1580,0.5028,49.25899708,-122.75420307,0.83999997,
0.4970,-0.0364,0.4402,0.8653,-0.8369,-0.2603,0.3605,0.0908,0.1580,0.5028,49.25899708,-122.75420307,0.83999997,
0.5000,-0.0440,0.4390,0.8738,-0.8369,-0.2603,0.3605,0.0908,0.1580,0.5028,49.25899708,-122.75420307,0.83999997,
0.5020,-0.0493,0.4368,0.8846,-0.8369,-0.2603,0.3605,0.0908,0.1580,0.5028,49.25899708,-122.75420307,0.83999997,
0.5040,-0.0567,0.4375,0.8963,-0.8369,-0.2603,0.3605,0.0908,0.1580,0.5028,49.25899708,-122.75420307,0.83999997,
0.5080,-0.0664,0.4402,0.9090,-0.8369,-0.2603,0.3605,0.0908,0.1580,0.5028,49.25899708,-122.75420307,0.83999997,
0.5100,-0.0718,0.4344,0.9210,-0.8369,-0.2603,0.3605,0.0908,0.1580,0.5028,49.25899708,-122.75420307,0.83999997,
0.5130,-0.0664,0.4263,0.9278,-0.8369,-0.2603,0.3605,0.0908,0.1580,0.5028,49.25899708,-122.75420307,0.83999997,
0.5140,-0.0540,0.4202,0.9291,-0.8369,-0.2603,0.3605,0.0908,0.1580,0.5028,49.25899708,-122.75420307,0.83999997,
0.5170,-0.0447,0.4143,0.9335,-0.8369,-0.2603,0.3605,0.0908,0.1580,0.5028,49.25899708,-122.75420307,0.83999997,
0.5190,-0.0391,0.4114,0.9410,-0.8369,-0.2603,0.3605,0.0908,0.1580,0.5028,49.25899708,-122.75420307,0.83999997,
0.5220,-0.0391,0.4094,0.9515,-0.8369,-0.2603,0.3605,0.0908,0.1580,0.5028,49.25899708,-122.75420307,0.83999997,
0.5250,-0.0415,0.4082,0.9623,-0.8369,-0.2603,0.3605,0.0908,0.1580,0.5028,49.25899708,-122.75420307,0.83999997,
0.5290,-0.0459,0.4109,0.9745,-0.8369,-0.2603,0.3605,0.0908,0.1580,0.5028,49.25899708,-122.75420307,0.83999997,
0.5300,-0.0479,0.4116,0.9879,-0.8369,-0.2603,0.3605,0.0908,0.1580,0.5028,49.25899708,-122.75420307,0.83999997,
0.5350,-0.0457,0.4102,1.0009,-0.8369,-0.2603,0.3605,0.0908,0.1580,0.5028,49.25899708,-122.75420307,0.83999997,
0.5360,-0.0457,0.4102,1.0009,-0.8369,-0.2603,0.3605,0.2585,-0.1921,0.0518,49.25899708,-122.75420307,0.83999997,
0.5370,-0.0445,0.4068,1.0094,-0.8369,-0.2603,0.3605,0.2585,-0.1921,0.0518,49.25899708,-122.75420307,0.83999997,
0.5380,-0.0440,0.4024,1.0168,-0.8369,-0.2603,0.3605,0.2585,-0.1921,0.0518,49.25899708,-122.75420307,0.83999997,
0.5400,-0.0464,0.4006,1.0273,-0.8369,-0.2603,0.3605,0.2585,-0.1921,0.0518,49.25899708,-122.75420307,0.83999997,
0.5430,-0.0413,0.3987,1.0334,-0.8369,-0.2603,0.3605,0.2585,-0.1921,0.0518,49.25899708,-122.75420307,0.83999997,
0.5460,-0.0249,0.3897,1.0251,-0.8369,-0.2603,0.3605,0.2585,-0.1921,0.0518,49.25899708,-122.75420307,0.83999997,
0.5470,-0.0249,0.3897,1.0251,0.1992,0.3634,-0.1479,0.2585,-0.1921,0.0518,49.25899708,-122.75420307,0.83999997,
0.5480,-0.0217,0.3914,1.0194,0.1992,0.3634,-0.1479,0.2585,-0.1921,0.0518,49.25899708,-122.75420307,0.83999997,
0.5500,-0.0247,0.3940,1.0153,0.1992,0.3634,-0.1479,0.2585,-0.1921,0.0518,49.25899708,-122.75420307,0.83999997,
0.5540,-0.0178,0.3911,1.0080,0.1992,0.3634,-0.1479,0.2585,-0.1921,0.0518,49.25899708,-122.75420307,0.83999997,
0.5550,-0.0120,0.3906,0.9982,0.1992,0.3634,-0.1479,0.2585,-0.1921,0.0518,49.25899708,-122.75420307,0.83999997,
0.5580,-0.0176,0.3975,0.9923,0.1992,0.3634,-0.1479,0.2585,-0.1921,0.0518,49.25899708,-122.75420307,0.83999997,
0.5620,-0.0244,0.4048,0.9850,0.1992,0.3634,-0.1479,0.2585,-0.1921,0.0518,49.25899708,-122.75420307,0.83999997,
0.5630,-0.0305,0.4133,0.9730,0.1992,0.3634,-0.1479,0.2585,-0.1921,0.0518,49.25899708,-122.75420307,0.83999997,
0.5660,-0.0371,0.4214,0.9559,0.1992,0.3634,-0.1479,0.2585,-0.1921,0.0518,49.25899708,-122.75420307,0.83999997,
0.5670,-0.0415,0.4297,0.9388,0.1992,0.3634,-0.1479,0.2585,-0.1921,0.0518,49.25899708,-122.75420307,0.83999997,
0.5710,-0.0454,0.4385,0.9198,0.1992,0.3634,-0.1479,0.2585,-0.1921,0.0518,49.25899708,-122.75420307,0.83999997,
0.5730,-0.0493,0.4461,0.9022,0.1992,0.3634,-0.1479,0.2585,-0.1921,0.0518,49.25899708,-122.75420307,0.83999997,
0.5760,-0.0511,0.4537,0.8885,0.1992,0.3634,-0.1479,0.2585,-0.1921,0.0518,49.25899708,-122.75420307,0.83999997,
0.5780,-0.0547,0.4615,0.8785,0.1992,0.3634,-0.1479,0.2585,-0.1921,0.0518,49.25899708,-122.75420307,0.83999997,
0.5810,-0.0562,0.4659,0.8697,0.1992,0.3634,-0.1479,0.2585,-0.1921,0.0518,49.25899708,-122.75420307,0.83999997,
0.5840,-0.0591,0.4683,0.8619,0.1992,0.3634,-0.1479,0.2585,-0.1921,0.0518,49.25899708,-122.75420307,0.83999997,
0.5850,-0.0606,0.4725,0.8577,0.1992,0.3634,-0.1479,0.2585,-0.1921,0.0518,49.25899708,-122.75420307,0.83999997,
0.5880,-0.0611,0.4759,0.8543,0.1992,0.3634,-0.1479,0.2585,-0.1921,0.0518,49.25899708,-122.75420307,0.83999997,
0.5910,-0.0623,0.4788,0.8563,0.1992,0.3634,-0.1479,0.2585,-0.1921,0.0518,49.25899708,-122.75420307,0.83999997,
0.5960,-0.0625,0.4769,0.8602,0.1992,0.3634,-0.1479,0.2585,-0.1921,0.0518,49.25899708,-122.75420307,0.83999997,
0.5970,-0.0621,0.4776,0.8692,0.1992,0.3634,-0.1479,0.2585,-0.1921,0.0518,49.25899708,-122.75420307,0.83999997,
0.5980,-0.0623,0.4783,0.8792,0.1992,0.3634,-0.1479,0.2585,-0.1921,0.0518,49.25899708,-122.75420307,0.83999997,
0.6020,-0.0650,0.4783,0.8922,0.1992,0.3634,-0.1479,0.2585,-0.1921,0.0518,49.25899708,-122.75420307,0.83999997,
0.6040,-0.0638,0.4788,0.9068,0.1992,0.3634,-0.1479,0.2585,-0.1921,0.0518,49.25899708,-122.75420307,0.83999997,
0.6050,-0.0638,0.4788,0.9068,0.1992,0.3634,-0.1479,0.4118,-0.1166,0.2134,49.25899708,-122.75420307,0.83999997,
0.6060,-0.0633,0.4810,0.9220,0.1992,0.3634,-0.1479,0.4118,-0.1166,0.2134,49.25899708,-122.75420307,0.83999997,
0.6090,-0.0601,0.4849,0.9371,0.1992,0.3634,-0.1479,0.4118,-0.1166,0.2134,49.25899708,-122.75420307,0.83999997,
0.6110,-0.0533,0.4886,0.9454,0.1992,0.3634,-0.1479,0.4118,-0.1166,0.2134,49.25899708,-122.75420307,0.83999997,
0.6150,-0.0452,0.4915,0.9515,0.1992,0.3634,-0.1479,0.4118,-0.1166,0.2134,49.25899708,-122.75420307,0.83999997,
0.6160,-0.0376,0.4937,0.9557,0.1992,0.3634,-0.1479,0.4118,-0.1166,0.2134,49.25899708,-122.75420307,0.83999997,
0.6170,-0.0376,0.4937,0.9557,-0.1298,0.0620,0.3201,0.4118,-0.1166,0.2134,49.25899708,-122.75420307,0.83999997,
0.6190,-0.0313,0.4952,0.9596,-0.1298,0.0620,0.3201,0.4118,-0.1166,0.2134,49.25899708,-122.75420307,0.83999997,
0.6220,-0.0269,0.4976,0.9606,-0.1298,0.0620,0.3201,0.4118,-0.1166,0.2134,49.25899708,-122.75420307,0.83999997,
0.6230,-0.0186,0.4989,0.9572,-0.1298,0.0620,0.3201,0.4118,-0.1166,0.2134,49.25899708,-122.75420307,0.83999997,
0.6260,-0.0103,0.5013,0.9557,-0.1298,0.0620,0.3201,0.4118,-0.1166,0.2134,49.25899708,-122.75420307,0.83999997,
0.6290,-0.0027,0.5037,0.9530,-0.1298,0.0620,0.3201,0.4118,-0.1166,0.2134,49.25899708,-122.75420307,0.83999997,
0.6320,0.0037,0.5076,0.9484,-0.1298,0.0620,0.3201,0.4118,-0.1166,0.2134,49.25899708,-122.75420307,0.83999997,
0.6350,0.0086,0.5081,0.9440,-0.1298,0.0620,0.3201,0.4118,-0.1166,0.2134,49.25899708,-122.75420307,0.83999997,
0.6360,0.0112,0.5067,0.9405,-0.1298,0.0620,0.3201,0.4118,-0.1166,0.2134,49.25899708,-122.75420307,0.83999997,
0.6380,0.0127,0.5084,0.9374,-0.1298,0.0620,0.3201,0.4118,-0.1166,0.2134,49.25899708,-122.75420307,0.83999997,
0.6420,0.0122,0.5108,0.9349,-0.1298,0.0620,0.3201,0.4118,-0.1166,0.2134,49.25899708,-122.75420307,0.83999997,
0.6440,0.0105,0.5089,0.9339,-0.1298,0.0620,0.3201,0.4118,-0.1166,0.2134,49.25899708,-122.75420307,0.83999997,
0.6470,0.0081,0.5091,0.9357,-0.1298,0.0620,0.3201,0.4118,-0.1166,0.2134,49.25899708,-122.75420307,0.83999997,
0.6500,0.0054,0.5091,0.9388,-0.1298,0.0620,0.3201,0.4118,-0.1166,0.2134,49.25899708,-122.75420307,0.83999997,
0.6510,0.0027,0.5072,0.9408,-0.1298,0.0620,0.3201,0.4118,-0.1166,0.2134,49.25899708,-122.75420307,0.83999997,
0.6540,-0.0005,0.5064,0.9427,-0.1298,0.0620,0.3201,0.4118,-0.1166,0.2134,49.25899708,-122.75420307,0.83999997,
0.6570,-0.0022,0.5057,0.9454,-0.1298,0.0620,0.3201,0.4118,-0.1166,0.2134,49.25899708,-122.75420307,0.83999997,
0.6600,-0.0032,0.5042,0.9454,-0.1298,0.0620,0.3201,0.4118,-0.1166,0.2134,49.25899708,-122.75420307,0.83999997,
0.6630,-0.0029,0.5057,0.9442,-0.1298,0.0620,0.3201,0.4118,-0.1166,0.2134,49.25899708,-122.75420307,0.83999997,
0.6650,-0.0020,0.5079,0.9413,-0.1298,0.0620,0.3201,0.4118,-0.1166,0.2134,49.25899708,-122.75420307,0.83999997,
0.6670,-0.0015,0.5123,0.9391,-0.1298,0.0620,0.3201,0.4118,-0.1166,0.2134,49.25899708,-122.75420307,0.83999997,
0.6690,0.0017,0.5179,0.9364,-0.1298,0.0620,0.3201,0.4118,-0.1166,0.2134,49.25899708,-122.75420307,0.83999997,
0.6730,0.0064,0.5262,0.9352,-0.1298,0.0620,0.3201,0.4118,-0.1166,0.2134,49.25899708,-122.75420307,0.83999997,
0.6760,0.0064,0.5262,0.9352,-0.1298,0.0620,0.3201,0.2103,0.0026,0.5227,49.25899708,-122.75420307,0.83999997,
0.6770,0.0127,0.5370,0.9347,-0.1298,0.0620,0.3201,0.2103,0.0026,0.5227,49.25899708,-122.75420307,0.83999997,
0.6770,0.0210,0.5492,0.9359,-0.1298,0.0620,0.3201,0.2103,0.0026,0.5227,49.25899708,-122.75420307,0.83999997,
0.6800,0.0283,0.5587,0.9366,-0.1298,0.0620,0.3201,0.2103,0.0026,0.5227,49.25899708,-122.75420307,0.83999997,
0.6820,0.0342,0.5675,0.9388,-0.1298,0.0620,0.3201,0.2103,0.0026,0.5227,49.25899708,-122.75420307,0.83999997,
0.6850,0.0415,0.5758,0.9401,-0.1298,0.0620,0.3201,0.2103,0.0026,0.5227,49.25899708,-122.75420307,0.83999997,
0.6880,0.0464,0.5851,0.9418,-0.1298,0.0620,0.3201,0.2103,0.0026,0.5227,49.25899708,-122.75420307,0.83999997,
0.6880,0.0464,0.5851,0.9418,-0.3332,0.1649,0.3578,0.2103,0.0026,0.5227,49.25899708,-122.75420307,0.83999997,
0.6890,0.0520,0.5944,0.9466,-0.3332,0.1649,0.3578,0.2103,0.0026,0.5227,49.25899708,-122.75420307,0.83999997,
0.6930,0.0559,0.6059,0.9501,-0.3332,0.1649,0.3578,0.2103,0.0026,0.5227,49.25899708,-122.75420307,0.83999997,
0.6950,0.0630,0.6176,0.9530,-0.3332,0.1649,0.3578,0.2103,0.0026,0.5227,49.25899708,-122.75420307,0.83999997,
0.6970,0.0713,0.6264,0.9525,-0.3332,0.1649,0.3578,0.2103,0.0026,0.5227,49.25899708,-122.75420307,0.83999997,
0.7000,0.0794,0.6354,0.9469,-0.3332,0.1649,0.3578,0.2103,0.0026,0.5227,49.25899708,-122.75420307,0.83999997,
0.7020,0.0853,0.6405,0.9396,-0.3332,0.1649,0.3578,0.2103,0.0026,0.5227,49.25899708,-122.75420307,0.83999997,
0.7040,0.0897,0.6449,0.9298,-0.3332,0.1649,0.3578,0.2103,0.0026,0.5227,49.25899708,-122.75420307,0.83999997,
0.7070,0.0926,0.6464,0.9190,-0.3332,0.1649,0.3578,0.2103,0.0026,0.5227,49.25899708,-122.75420307,0.83999997,
0.7110,0.0970,0.6467,0.9093,-0.3332,0.1649,0.3578,0.2103,0.0026,0.5227,49.25899708,-122.75420307,0.83999997,
0.7140,0.0985,0.6435,0.9029,-0.3332,0.1649,0.3578,0.2103,0.0026,0.5227,49.25899708,-122.75420307,0.83999997,
0.7150,0.0975,0.6374,0.8973,-0.3332,0.1649,0.3578,0.2103,0.0026,0.5227,49.25899708,-122.75420307,0.83999997,
0.7170,0.0948,0.6283,0.8944,-0.3332,0.1649,0.3578,0.2103,0.0026,0.5227,49.25899708,-122.75420307,0.83999997,
0.7200,0.0906,0.6178,0.8966,-0.3332,0.1649,0.3578,0.2103,0.0026,0.5227,49.25899708,-122.75420307,0.83999997,
0.7220,0.0833,0.6066,0.9051,-0.3332,0.1649,0.3578,0.2103,0.0026,0.5227,49.25899708,-122.75420307,0.83999997,
0.7260,0.0730,0.5912,0.9176,-0.3332,0.1649,0.3578,0.2103,0.0026,0.5227,49.25899708,-122.75420307,0.83999997,
0.7290,0.0606,0.5753,0.9386,-0.3332,0.1649,0.3578,0.2103,0.0026,0.5227,49.25899708,-122.75420307,0.83999997,
0.7300,0.0471,0.5611,0.9662,-0.3332,0.1649,0.3578,0.2103,0.0026,0.5227,49.25899708,-122.75420307,0.83999997,
0.7350,0.0410,0.5411,0.9975,-0.3332,0.1649,0.3578,0.2103,0.0026,0.5227,49.25899708,-122.75420307,0.83999997,
0.7370,0.0406,0.5160,1.0309,-0.3332,0.1649,0.3578,0.2103,0.0026,0.5227,49.25899708,-122.75420307,0.83999997,
0.7390,0.0459,0.4910,1.0637,-0.3332,0.1649,0.3578,0.2103,0.0026,0.5227,49.25899708,-122.75420307,0.83999997,
0.7400,0.0511,0.4688,1.0952,-0.3332,0.1649,0.3578,0.2103,0.0026,0.5227,49.25899708,-122.75420307,0.83999997,
0.7440,0.0540,0.4527,1.1238,-0.3332,0.1649,0.3578,0.2103,0.0026,0.5227,49.25899708,-122.75420307,0.83999997,
0.7450,0.0525,0.4400,1.1462,-0.3332,0.1649,0.3578,0.2103,0.0026,0.5227,49.25899708,-122.75420307,0.83999997,
0.7460,0.0525,0.4400,1.1462,-0.3332,0.1649,0.3578,0.1200,-0.1429,0.1808,49.25899708,-122.75420307,0.83999997,
0.7490,0.0511,0.4326,1.1653,-0.3332,0.1649,0.3578,0.1200,-0.1429,0.1808,49.25899708,-122.75420307,0.83999997,
0.7520,0.0589,0.4243,1.1734,-0.3332,0.1649,0.3578,0.1200,-0.1429,0.1808,49.25899708,-122.75420307,0.83999997,
0.7530,0.0779,0.4121,1.1731,-0.3332,0.1649,0.3578,0.1200,-0.1429,0.1808,49.25899708,-122.75420307,0.83999997,
0.7560,0.0784,0.4094,1.1785,-0.3332,0.1649,0.3578,0.1200,-0.1429,0.1808,49.25899708,-122.75420307,0.83999997,
0.7590,0.0757,0.4121,1.1868,-0.3332,0.1649,0.3578,0.1200,-0.1429,0.1808,49.25899708,-122.75420307,0.83999997,
0.7620,0.0757,0.4121,1.1868,0.0143,0.6770,0.5051,0.1200,-0.1429,0.1808,49.25899708,-122.75420307,0.83999997,
0.7630,0.0745,0.4119,1.1944,0.0143,0.6770,0.5051,0.1200,-0.1429,0.1808,49.25899708,-122.75420307,0.83999997,
0.7660,0.0767,0.4124,1.1941,0.0143,0.6770,0.5051,0.1200,-0.1429,0.1808,49.25899708,-122.75420307,0.83999997,
0.7670,0.0845,0.4104,1.1843,0.0143,0.6770,0.5051,0.1200,-0.1429,0.1808,49.25899708,-122.75420307,0.83999997,
0.7700,0.0933,0.4102,1.1699,0.0143,0.6770,0.5051,0.1200,-0.1429,0.1808,49.25899708,-122.75420307,0.83999997,
0.7710,0.1021,0.4124,1.1526,0.0143,0.6770,0.5051,0.1200,-0.1429,0.1808,49.25900333,-122.75420589,0.37000000,
0.7730,0.1114,0.4119,1.1340,0.0143,0.6770,0.5051,0.1200,-0.1429,0.1808,49.25900333,-122.75420589,0.37000000,
0.7770,0.1165,0.4151,1.1150,0.0143,0.6770,0.5051,0.1200,-0.1429,0.1808,49.25900333,-122.75420589,0.37000000,
0.7780,0.1190,0.4177,1.0966,0.0143,0.6770,0.5051,0.1200,-0.1429,0.1808,49.25900333,-122.75420589,0.37000000,
0.7810,0.1241,0.4158,1.0766,0.0143,0.6770,0.5051,0.1200,-0.1429,0.1808,49.25900333,-122.75420589,0.37000000,
0.7840,0.1307,0.4158,1.0593,0.0143,0.6770,0.5051,0.1200,-0.1429,0.1808,49.25900333,-122.75420589,0.37000000,
0.7860,0.1402,0.4092,1.0456,0.0143,0.6770,0.5051,0.1200,-0.1429,0.1808,49.25900333,-122.75420589,0.37000000,
0.7880,0.1392,0.4075,1.0380,0.0143,0.6770,0.5051,0.1200,-0.1429,0.1808,49.25900333,-122.75420589,0.37000000,
0.7910,0.1317,0.4099,1.0385,0.0143,0.6770,0.5051,0.1200,-0.1429,0.1808,49.25900333,-122.75420589,0.37000000,
0.7950,0.1265,0.4131,1.0431,0.0143,0.6770,0.5051,0.1200,-0.1429,0.1808,49.25900333,-122.75420589,0.37000000,
0.7970,0.1236,0.4165,1.0502,0.0143,0.6770,0.5051,0.1200,-0.1429,0.1808,49.25900333,-122.75420589,0.37000000,
0.7990,0.1209,0.4202,1.0588,0.0143,0.6770,0.5051,0.1200,-0.1429,0.1808,49.25900333,-122.75420589,0.37000000,
0.8020,0.1224,0.4202,1.0690,0.0143,0.6770,0.5051,0.1200,-0.1429,0.1808,49.25900333,-122.75420589,0.37000000,
0.8030,0.1243,0.4204,1.0786,0.0143,0.6770,0.5051,0.1200,-0.1429,0.1808,49.25900333,-122.75420589,0.37000000,
0.8060,0.1283,0.4185,1.0874,0.0143,0.6770,0.5051,0.1200,-0.1429,0.1808,49.25900333,-122.75420589,0.37000000,
0.8110,0.1324,0.4158,1.0964,0.0143,0.6770,0.5051,0.1200,-0.1429,0.1808,49.25900333,-122.75420589,0.37000000,
0.8130,0.1368,0.4133,1.1042,0.0143,0.6770,0.5051,0.1200,-0.1429,0.1808,49.25900333,-122.75420589,0.37000000,
0.8140,0.1378,0.4119,1.1135,0.0143,0.6770,0.5051,0.1200,-0.1429,0.1808,49.25900333,-122.75420589,0.37000000,
0.8170,0.1405,0.4099,1.1221,0.0143,0.6770,0.5051,0.1200,-0.1429,0.1808,49.25900333,-122.75420589,0.37000000,
0.8180,0.1405,0.4099,1.1221,0.0143,0.6770,0.5051,-0.1457,0.3967,0.2197,49.25900333,-122.75420589,0.37000000,
0.8190,0.1412,0.4104,1.1313,0.0143,0.6770,0.5051,-0.1457,0.3967,0.2197,49.25900333,-122.75420589,0.37000000,
0.8220,0.1419,0.4094,1.1355,0.0143,0.6770,0.5051,-0.1457,0.3967,0.2197,49.25900333,-122.75420589,0.37000000,
0.8250,0.1422,0.4119,1.1377,0.0143,0.6770,0.5051,-0.1457,0.3967,0.2197,49.25900333,-122.75420589,0.37000000,
0.8280,0.1419,0.4129,1.1401,0.0143,0.6770,0.5051,-0.1457,0.3967,0.2197,49.25900333,-122.75420589,0.37000000,
0.8290,0.1400,0.4141,1.1411,0.0143,0.6770,0.5051,-0.1457,0.3967,0.2197,49.25900333,-122.75420589,0.37000000,
0.8300,0.1400,0.4141,1.1411,0.8383,1.0534,0.9279,-0.1457,0.3967,0.2197,49.25900333,-122.75420589,0.37000000,
0.8320,0.1353,0.4170,1.1392,0.8383,1.0534,0.9279,-0.1457,0.3967,0.2197,49.25900333,-122.75420589,0.37000000,
0.8350,0.1331,0.4158,1.1362,0.8383,1.0534,0.9279,-0.1457,0.3967,0.2197,49.25900333,-122.75420589,0.37000000,
0.8370,0.1287,0.4121,1.1304,0.8383,1.0534,0.9279,-0.1457,0.3967,0.2197,49.25900333,-122.75420589,0.37000000,
0.8400,0.1229,0.4097,1.1240,0.8383,1.0534,0.9279,-0.1457,0.3967,0.2197,49.25900333,-122.75420589,0.37000000,
0.8430,0.1170,0.4068,1.1167,0.8383,1.0534,0.9279,-0.1457,0.3967,0.2197,49.25900333,-122.75420589,0.37000000,
0.8440,0.1129,0.4019,1.1084,0.8383,1.0534,0.9279,-0.1457,0.3967,0.2197,49.25900333,-122.75420589,0.37000000,
0.8480,0.1046,0.3962,1.0996,0.8383,1.0534,0.9279,-0.1457,0.3967,0.2197,49.25900333,-122.75420589,0.37000000,
0.8500,0.0943,0.3919,1.0920,0.8383,1.0534,0.9279,-0.1457,0.3967,0.2197,49.25900333,-122.75420589,0.37000000,
0.8530,0.0840,0.3875,1.0815,0.8383,1.0534,0.9279,-0.1457,0.3967,0.2197,49.25900333,-122.75420589,0.37000000,
0.8540,0.0794,0.3794,1.0688,0.8383,1.0534,0.9279,-0.1457,0.3967,0.2197,49.25900333,-122.75420589,0.37000000,
0.8570,0.0765,0.3706,1.0517,0.8383,1.0534,0.9279,-0.1457,0.3967,0.2197,49.25900333,-122.75420589,0.37000000,
0.8600,0.0792,0.3625,1.0329,0.8383,1.0534,0.9279,-0.1457,0.3967,0.2197,49.25900333,-122.75420589,0.37000000,
0.8620,0.0799,0.3533,1.0153,0.8383,1.0534,0.9279,-0.1457,0.3967,0.2197,49.25900333,-122.75420589,0.37000000,
0.8650,0.0777,0.3452,1.0009,0.8383,1.0534,0.9279,-0.1457,0.3967,0.2197,49.25900333,-122.75420589,0.37000000,
0.8670,0.0735,0.3391,0.9877,0.8383,1.0534,0.9279,-0.1457,0.3967,0.2197,49.25900333,-122.75420589,0.37000000,
0.8690,0.0696,0.3303,0.9782,0.8383,1.0534,0.9279,-0.1457,0.3967,0.2197,49.25900333,-122.75420589,0.37000000,
0.8730,0.0635,0.3249,0.9679,0.8383,1.0534,0.9279,-0.1457,0.3967,0.2197,49.25900333,-122.75420589,0.37000000,
0.8750,0.0603,0.3181,0.9608,0.8383,1.0534,0.9279,-0.1457,0.3967,0.2197,49.25900333,-122.75420589,0.37000000,
0.8780,0.0596,0.3137,0.9547,0.8383,1.0534,0.9279,-0.1457,0.3967,0.2197,49.25900333,-122.75420589,0.37000000,
0.8800,0.0569,0.3090,0.9496,0.8383,1.0534,0.9279,-0.1457,0.3967,0.2197,49.25900333,-122.75420589,0.37000000,
0.8820,0.0584,0.3037,0.9442,0.8383,1.0534,0.9279,-0.1457,0.3967,0.2197,49.25900333,-122.75420589,0.37000000,
0.8850,0.0603,0.2983,0.9371,0.8383,1.0534,0.9279,-0.1457,0.3967,0.2197,49.25900333,-122.75420589,0.37000000,
0.8870,0.0657,0.2951,0.9288,0.8383,1.0534,0.9279,-0.1457,0.3967,0.2197,49.25900333,-122.75420589,0.37000000,
0.8880,0.0657,0.2951,0.9288,0.8383,1.0534,0.9279,-0.0051,0.4482,-0.0125,49.25900333,-122.75420589,0.37000000,
0.8910,0.0704,0.2932,0.9220,0.8383,1.0534,0.9279,-0.0051,0.4482,-0.0125,49.25900333,-122.75420589,0.37000000,
0.8940,0.0748,0.2873,0.9176,0.8383,1.0534,0.9279,-0.0051,0.4482,-0.0125,49.25900333,-122.75420589,0.37000000,
0.8960,0.0784,0.2851,0.9151,0.8383,1.0534,0.9279,-0.0051,0.4482,-0.0125,49.25900333,-122.75420589,0.37000000,
0.8980,0.0835,0.2829,0.9146,0.8383,1.0534,0.9279,-0.0051,0.4482,-0.0125,49.25900333,-122.75420589,0.37000000,
0.9000,0.0894,0.2792,0.9186,0.8383,1.0534,0.9279,-0.0051,0.4482,-0.0125,49.25900333,-122.75420589,0.37000000,
0.9010,0.0894,0.2792,0.9186,1.4273,-0.3449,1.7986,-0.0051,0.4482,-0.0125,49.25900333,-122.75420589,0.37000000,
0.9030,0.0938,0.2761,0.9234,1.4273,-0.3449,1.7986,-0.0051,0.4482,-0.0125,49.25900333,-122.75420589,0.37000000,
0.9060,0.0967,0.2721,0.9325,1.4273,-0.3449,1.7986,-0.0051,0.4482,-0.0125,49.25900333,-122.75420589,0.37000000,
0.9080,0.0994,0.2697,0.9437,1.4273,-0.3449,1.7986,-0.0051,0.4482,-0.0125,49.25900333,-122.75420589,0.37000000,
0.9110,0.1016,0.2673,0.9542,1.4273,-0.3449,1.7986,-0.0051,0.4482,-0.0125,49.25900333,-122.75420589,0.37000000,
0.9140,0.1048,0.2638,0.9672,1.4273,-0.3449,1.7986,-0.0051,0.4482,-0.0125,49.25900333,-122.75420589,0.37000000,
0.9160,0.1085,0.2575,0.9811,1.4273,-0.3449,1.7986,-0.0051,0.4482,-0.0125,49.25900333,-122.75420589,0.37000000,
0.9180,0.1109,0.2550,0.9945,1.4273,-0.3449,1.7986,-0.0051,0.4482,-0.0125,49.25900333,-122.75420589,0.37000000,
0.9210,0.1129,0.2531,1.0053,1.4273,-0.3449,1.7986,-0.0051,0.4482,-0.0125,49.25900333,-122.75420589,0.37000000,
0.9230,0.1175,0.2492,1.0136,1.4273,-0.3449,1.7986,-0.0051,0.4482,-0.0125,49.25900333,-122.75420589,0.37000000,
0.9270,0.1180,0.2426,1.0226,1.4273,-0.3449,1.7986,-0.0051,0.4482,-0.0125,49.25900333,-122.75420589,0.37000000,
0.9280,0.1190,0.2414,1.0312,1.4273,-0.3449,1.7986,-0.0051,0.4482,-0.0125,49.25900333,-122.75420589,0.37000000,
0.9310,0.1192,0.2389,1.0409,1.4273,-0.3449,1.7986,-0.0051,0.4482,-0.0125,49.25900333,-122.75420589,0.37000000,
0.9340,0.1178,0.2389,1.0473,1.4273,-0.3449,1.7986,-0.0051,0.4482,-0.0125,49.25900333,-122.75420589,0.37000000,
0.9360,0.1175,0.2379,1.0524,1.4273,-0.3449,1.7986,-0.0051,0.4482,-0.0125,49.25900333,-122.75420589,0.37000000,
0.9380,0.1187,0.2370,1.0551,1.4273,-0.3449,1.7986,-0.0051,0.4482,-0.0125,49.25900333,-122.75420589,0.37000000,
0.9410,0.1178,0.2375,1.0566,1.4273,-0.3449,1.7986,-0.0051,0.4482,-0.0125,49.25900333,-122.75420589,0.37000000,
0.9440,0.1163,0.2375,1.0566,1.4273,-0.3449,1.7986,-0.0051,0.4482,-0.0125,49.25900333,-122.75420589,0.37000000,
0.9460,0.1182,0.2387,1.0568,1.4273,-0.3449,1.7986,-0.0051,0.4482,-0.0125,49.25900333,-122.75420589,0.37000000,
0.9480,0.1180,0.2419,1.0529,1.4273,-0.3449,1.7986,-0.0051,0.4482,-0.0125,49.25900333,-122.75420589,0.37000000,
0.9510,0.1182,0.2455,1.0480,1.4273,-0.3449,1.7986,-0.0051,0.4482,-0.0125,49.25900333,-122.75420589,0.37000000,
0.9530,0.1178,0.2450,1.0387,1.4273,-0.3449,1.7986,-0.0051,0.4482,-0.0125,49.25900333,-122.75420589,0.37000000,
0.9570,0.1151,0.2494,1.0273,1.4273,-0.3449,1.7986,-0.0051,0.4482,-0.0125,49.25900333,-122.75420589,0.37000000,
0.9600,0.1124,0.2524,1.0138,1.4273,-0.3449,1.7986,-0.0051,0.4482,-0.0125,49.25900333,-122.75420589,0.37000000,
0.9610,0.1124,0.2524,1.0138,1.4273,-0.3449,1.7986,-0.0252,-0.1704,-0.1292,49.25900333,-122.75420589,0.37000000,
0.9620,0.1092,0.2555,0.9977,1.4273,-0.3449,1.7986,-0.0252,-0.1704,-0.1292,49.25900333,-122.75420589,0.37000000,
0.9650,0.1058,0.2592,0.9804,1.4273,-0.3449,1.7986,-0.0252,-0.1704,-0.1292,49.25900333,-122.75420589,0.37000000,
0.9670,0.1014,0.2634,0.9576,1.4273,-0.3449,1.7986,-0.0252,-0.1704,-0.1292,49.25900333,-122.75420589,0.37000000,
0.9690,0.0992,0.2680,0.9322,1.4273,-0.3449,1.7986,-0.0252,-0.1704,-0.1292,49.25900333,-122.75420589,0.37000000,
0.9710,0.0975,0.2746,0.9051,1.4273,-0.3449,1.7986,-0.0252,-0.1704,-0.1292,49.25900333,-122.75420589,0.37000000,
0.9720,0.0975,0.2746,0.9051,0.9125,-0.9246,0.8132,-0.0252,-0.1704,-0.1292,49.25900333,-122.75420589,0.37000000,
0.9740,0.0982,0.2814,0.8760,0.9125,-0.9246,0.8132,-0.0252,-0.1704,-0.1292,49.25900333,-122.75420589,0.37000000,
0.9790,0.0972,0.2897,0.8482,0.9125,-0.9246,0.8132,-0.0252,-0.1704,-0.1292,49.25900333,-122.75420589,0.37000000,
0.9810,0.0975,0.2985,0.8228,0.9125,-0.9246,0.8132,-0.0252,-0.1704,-0.1292,49.25900333,-122.75420589,0.37000000,
0.9810,0.0975,0.3085,0.8003,0.9125,-0.9246,0.8132,-0.0252,-0.1704,-0.1292,49.25900333,-122.75420589,0.37000000,
0.9840,0.0965,0.3176,0.7778,0.9125,-0.9246,0.8132,-0.0252,-0.1704,-0.1292,49.25900333,-122.75420589,0.37000000,
0.9860,0.0975,0.3264,0.7561,0.9125,-0.9246,0.8132,-0.0252,-0.1704,-0.1292,49.25900333,-122.75420589,0.37000000,
0.9890,0.0982,0.3354,0.7366,0.9125,-0.9246,0.8132,-0.0252,-0.1704,-0.1292,49.25900333,-122.75420589,0.37000000,
0.9920,0.0994,0.3415,0.7190,0.9125,-0.9246,0.8132,-0.0252,-0.1704,-0.1292,49.25900333,-122.75420589,0.37000000,
0.9950,0.1006,0.3493,0.7024,0.9125,-0.9246,0.8132,-0.0252,-0.1704,-0.1292,49.25900333,-122.75420589,0.37000000,
0.9970,0.1021,0.3545,0.6862,0.9125,-0.9246,0.8132,-0.0252,-0.1704,-0.1292,49.25900333,-122.75420589,0.37000000,
0.9990,0.1028,0.3616,0.6723,0.9125,-0.9246,0.8132,-0.0252,-0.1704,-0.1292,49.25900333,-122.75420589,0.37000000,
1.0010,0.1050,0.3674,0.6572,0.9125,-0.9246,0.8132,-0.0252,-0.1704,-0.1292,49.25900333,-122.75420589,0.37000000,
1.0050,0.1080,0.3738,0.6418,0.9125,-0.9246,0.8132,-0.0252,-0.1704,-0.1292,49.25900333,-122.75420589,0.37000000,
1.0070,0.1092,0.3801,0.6288,0.9125,-0.9246,0.8132,-0.0252,-0.1704,-0.1292,49.25900333,-122.75420589,0.37000000,
1.0100,0.1092,0.3833,0.6159,0.9125,-0.9246,0.8132,-0.0252,-0.1704,-0.1292,49.25900333,-122.75420589,0.37000000,
1.0130,0.1072,0.3884,0.6037,0.9125,-0.9246,0.8132,-0.0252,-0.1704,-0.1292,49.25900333,-122.75420589,0.37000000,
1.0150,0.1070,0.3911,0.5929,0.9125,-0.9246,0.8132,-0.0252,-0.1704,-0.1292,49.25900333,-122.75420589,0.37000000,
1.0170,0.1063,0.3926,0.5839,0.9125,-0.9246,0.8132,-0.0252,-0.1704,-0.1292,49.25900333,-122.75420589,0.37000000,
1.0200,0.1060,0.3955,0.5743,0.9125,-0.9246,0.8132,-0.0252,-0.1704,-0.1292,49.25900333,-122.75420589,0.37000000,
1.0220,0.1036,0.3982,0.5646,0.9125,-0.9246,0.8132,-0.0252,-0.1704,-0.1292,49.25900333,-122.75420589,0.37000000,
1.0250,0.1014,0.3987,0.5582,0.9125,-0.9246,0.8132,-0.0252,-0.1704,-0.1292,49.25900333,-122.75420589,0.37000000,
1.0270,0.1006,0.4026,0.5511,0.9125,-0.9246,0.8132,-0.0252,-0.1704,-0.1292,49.25900333,-122.75420589,0.37000000,
1.0300,0.1009,0.4043,0.5460,0.9125,-0.9246,0.8132,-0.0252,-0.1704,-0.1292,49.25900333,-122.75420589,0.37000000,
1.0310,0.1009,0.4043,0.5460,0.9125,-0.9246,0.8132,0.4303,0.1961,0.1147,49.25900333,-122.75420589,0.37000000,
1.0330,0.1004,0.4033,0.5418,0.9125,-0.9246,0.8132,0.4303,0.1961,0.1147,49.25900333,-122.75420589,0.37000000,
1.0360,0.1014,0.4038,0.5394,0.9125,-0.9246,0.8132,0.4303,0.1961,0.1147,49.25900333,-122.75420589,0.37000000,
1.0380,0.1016,0.4041,0.5387,0.9125,-0.9246,0.8132,0.4303,0.1961,0.1147,49.25900333,-122.75420589,0.37000000,
1.0400,0.1019,0.4036,0.5406,0.9125,-0.9246,0.8132,0.4303,0.1961,0.1147,49.25900333,-122.75420589,0.37000000,
1.0440,0.1009,0.4036,0.5453,0.9125,-0.9246,0.8132,0.4303,0.1961,0.1147,49.25900333,-122.75420589,0.37000000,
1.0450,0.1009,0.4036,0.5453,1.1399,-1.9664,0.7809,0.4303,0.1961,0.1147,49.25900333,-122.75420589,0.37000000,
1.0460,0.1021,0.4046,0.5514,1.1399,-1.9664,0.7809,0.4303,0.1961,0.1147,49.25900333,-122.75420589,0.37000000,
1.0470,0.1028,0.4031,0.5611,1.1399,-1.9664,0.7809,0.4303,0.1961,0.1147,49.25900333,-122.75420589,0.37000000,
1.0500,0.1060,0.4038,0.5726,1.1399,-1.9664,0.7809,0.4303,0.1961,0.1147,49.25900333,-122.75420589,0.37000000,
1.0530,0.1094,0.4028,0.5853,1.1399,-1.9664,0.7809,0.4303,0.1961,0.1147,49.25900333,-122.75420589,0.37000000,
1.0560,0.1126,0.4026,0.5978,1.1399,-1.9664,0.7809,0.4303,0.1961,0.1147,49.25900333,-122.75420589,0.37000000,
1.0580,0.1158,0.4021,0.6132,1.1399,-1.9664,0.7809,0.4303,0.1961,0.1147,49.25900333,-122.75420589,0.37000000,
1.0620,0.1199,0.4004,0.6298,1.1399,-1.9664,0.7809,0.4303,0.1961,0.1147,49.25900333,-122.75420589,0.37000000,
1.0630,0.1239,0.3975,0.6471,1.1399,-1.9664,0.7809,0.4303,0.1961,0.1147,49.25900333,-122.75420589,0.37000000,
1.0650,0.1283,0.3962,0.6640,1.1399,-1.9664,0.7809,0.4303,0.1961,0.1147,49.25900333,-122.75420589,0.37000000,
1.0680,0.1287,0.3953,0.6813,1.1399,-1.9664,0.7809,0.4303,0.1961,0.1147,49.25900333,-122.75420589,0.37000000,
1.0700,0.1283,0.3950,0.7002,1.1399,-1.9664,0.7809,0.4303,0.1961,0.1147,49.25900333,-122.75420589,0.37000000,
1.0740,0.1292,0.3950,0.7197,1.1399,-1.9664,0.7809,0.4303,0.1961,0.1147,49.25900333,-122.75420589,0.37000000,
1.0750,0.1300,0.3931,0.7370,1.1399,-1.9664,0.7809,0.4303,0.1961,0.1147,49.25900333,-122.75420589,0.37000000,
1.0780,0.1273,0.3909,0.7529,1.1399,-1.9664,0.7809,0.4303,0.1961,0.1147,49.25900333,-122.75420589,0.37000000,
1.0810,0.1253,0.3894,0.7671,1.1399,-1.9664,0.7809,0.4303,0.1961,0.1147,49.25900333,-122.75420589,0.37000000,
1.0830,0.1219,0.3887,0.7771,1.1399,-1.9664,0.7809,0.4303,0.1961,0.1147,49.25900333,-122.75420589,0.37000000,
1.0860,0.1209,0.3843,0.7830,1.1399,-1.9664,0.7809,0.4303,0.1961,0.1147,49.25900333,-122.75420589,0.37000000,
1.0880,0.1202,0.3843,0.7881,1.1399,-1.9664,0.7809,0.4303,0.1961,0.1147,49.25900333,-122.75420589,0.37000000,
1.0910,0.1197,0.3840,0.7920,1.1399,-1.9664,0.7809,0.4303,0.1961,0.1147,49.25900333,-122.75420589,0.37000000,
1.0930,0.1190,0.3833,0.7954,1.1399,-1.9664,0.7809,0.4303,0.1961,0.1147,49.25900333,-122.75420589,0.37000000,
1.0970,0.1175,0.3818,0.7976,1.1399,-1.9664,0.7809,0.4303,0.1961,0.1147,49.25900333,-122.75420589,0.37000000,
1.0980,0.1121,0.3804,0.7988,1.1399,-1.9664,0.7809,0.4303,0.1961,0.1147,49.25900333,-122.75420589,0.37000000,
1.1020,0.1121,0.3804,0.7988,1.1399,-1.9664,0.7809,0.1775,-0.1369,-0.1096,49.25900333,-122.75420589,0.37000000,
1.1030,0.1048,0.3777,0.7979,1.1399,-1.9664,0.7809,0.1775,-0.1369,-0.1096,49.25900333,-122.75420589,0.37000000,
1.1030,0.0967,0.3777,0.7971,1.1399,-1.9664,0.7809,0.1775,-0.1369,-0.1096,49.25900333,-122.75420589,0.37000000,
1.1070,0.0862,0.3757,0.7964,1.1399,-1.9664,0.7809,0.1775,-0.1369,-0.1096,49.25900333,-122.75420589,0.37000000,
1.1080,0.0765,0.3747,0.7932,1.1399,-1.9664,0.7809,0.1775,-0.1369,-0.1096,49.25900333,-122.75420589,0.37000000,
1.1110,0.0677,0.3735,0.7910,1.1399,-1.9664,0.7809,0.1775,-0.1369,-0.1096,49.25900333,-122.75420589,0.37000000,
1.1150,0.0586,0.3718,0.7893,1.1399,-1.9664,0.7809,0.1775,-0.1369,-0.1096,49.25900333,-122.75420589,0.37000000,
1.1150,0.0586,0.3718,0.7893,0.9672,-0.8501,-2.4516,0.1775,-0.1369,-0.1096,49.25900333,-122.75420589,0.37000000,
1.1160,0.0506,0.3711,0.7891,0.9672,-0.8501,-2.4516,0.1775,-0.1369,-0.1096,49.25900333,-122.75420589,0.37000000,
1.1180,0.0425,0.3701,0.7869,0.9672,-0.8501,-2.4516,0.1775,-0.1369,-0.1096,49.25900333,-122.75420589,0.37000000,
1.1220,0.0386,0.3711,0.7842,0.9672,-0.8501,-2.4516,0.1775,-0.1369,-0.1096,49.25900333,-122.75420589,0.37000000,
1.1230,0.0347,0.3718,0.7835,0.9672,-0.8501,-2.4516,0.1775,-0.1369,-0.1096,49.25900333,-122.75420589,0.37000000,
1.1260,0.0296,0.3718,0.7827,0.9672,-0.8501,-2.4516,0.1775,-0.1369,-0.1096,49.25900333,-122.75420589,0.37000000,
1.1290,0.0257,0.3755,0.7830,0.9672,-0.8501,-2.4516,0.1775,-0.1369,-0.1096,49.25900333,-122.75420589,0.37000000,
1.1310,0.0225,0.3782,0.7859,0.9672,-0.8501,-2.4516,0.1775,-0.1369,-0.1096,49.25900333,-122.75420589,0.37000000,
1.1340,0.0203,0.3804,0.7905,0.9672,-0.8501,-2.4516,0.1775,-0.1369,-0.1096,49.25900333,-122.75420589,0.37000000,
1.1360,0.0195,0.3804,0.7993,0.9672,-0.8501,-2.4516,0.1775,-0.1369,-0.1096,49.25900333,-122.75420589,0.37000000,
1.1390,0.0151,0.3813,0.8094,0.9672,-0.8501,-2.4516,0.1775,-0.1369,-0.1096,49.25900333,-122.75420589,0.37000000,
1.1410,0.0117,0.3818,0.8194,0.9672,-0.8501,-2.4516,0.1775,-0.1369,-0.1096,49.25900333,-122.75420589,0.37000000,
1.1440,0.0093,0.3794,0.8313,0.9672,-0.8501,-2.4516,0.1775,-0.1369,-0.1096,49.25900333,-122.75420589,0.37000000,
1.1470,0.0073,0.3779,0.8433,0.9672,-0.8501,-2.4516,0.1775,-0.1369,-0.1096,49.25900333,-122.75420589,0.37000000,
1.1490,0.0051,0.3772,0.8585,0.9672,-0.8501,-2.4516,0.1775,-0.1369,-0.1096,49.25900333,-122.75420589,0.37000000,
1.1510,0.0032,0.3735,0.8729,0.9672,-0.8501,-2.4516,0.1775,-0.1369,-0.1096,49.25900333,-122.75420589,0.37000000,
1.1550,0.0042,0.3711,0.8887,0.9672,-0.8501,-2.4516,0.1775,-0.1369,-0.1096,49.25900333,-122.75420589,0.37000000,
1.1570,0.0042,0.3704,0.9032,0.9672,-0.8501,-2.4516,0.1775,-0.1369,-0.1096,49.25900333,-122.75420589,0.37000000,
1.1590,0.0024,0.3694,0.9188,0.9672,-0.8501,-2.4516,0.1775,-0.1369,-0.1096,49.25900333,-122.75420589,0.37000000,
1.1620,0.0034,0.3669,0.9332,0.9672,-0.8501,-2.4516,0.1775,-0.1369,-0.1096,49.25900333,-122.75420589,0.37000000,
1.1640,0.0039,0.3677,0.9479,0.9672,-0.8501,-2.4516,0.1775,-0.1369,-0.1096,49.25900333,-122.75420589,0.37000000,
1.1670,0.0027,0.3684,0.9630,0.9672,-0.8501,-2.4516,0.1775,-0.1369,-0.1096,49.25900333,-122.75420589,0.37000000,
1.1690,0.0032,0.3706,0.9762,0.9672,-0.8501,-2.4516,0.1775,-0.1369,-0.1096,49.25900333,-122.75420589,0.37000000,
1.1720,0.0032,0.3706,0.9762,0.9672,-0.8501,-2.4516,-0.1636,0.1291,-0.0663,49.25900333,-122.75420589,0.37000000,
1.1730,0.0044,0.3728,0.9882,0.9672,-0.8501,-2.4516,-0.1636,0.1291,-0.0663,49.25900333,-122.75420589,0.37000000,
1.1740,0.0090,0.3743,0.9987,0.9672,-0.8501,-2.4516,-0.1636,0.1291,-0.0663,49.25900333,-122.75420589,0.37000000,
1.1770,0.0132,0.3769,1.0104,0.9672,-0.8501,-2.4516,-0.1636,0.1291,-0.0663,49.25900333,-122.75420589,0.37000000,
1.1790,0.0173,0.3806,1.0197,0.9672,-0.8501,-2.4516,-0.1636,0.1291,-0.0663,49.25900333,-122.75420589,0.37000000,
1.1820,0.0230,0.3850,1.0285,0.9672,-0.8501,-2.4516,-0.1636,0.1291,-0.0663,49.25900333,-122.75420589,0.37000000,
1.1840,0.0288,0.3899,1.0353,0.9672,-0.8501,-2.4516,-0.1636,0.1291,-0.0663,49.25900333,-122.75420589,0.37000000,
1.1850,0.0288,0.3899,1.0353,1.0287,-0.5045,-1.7199,-0.1636,0.1291,-0.0663,49.25900333,-122.75420589,0.37000000,
1.1870,0.0335,0.3960,1.0402,1.0287,-0.5045,-1.7199,-0.1636,0.1291,-0.0663,49.25900333,-122.75420589,0.37000000,
1.1890,0.0379,0.4004,1.0417,1.0287,-0.5045,-1.7199,-0.1636,0.1291,-0.0663,49.25900333,-122.75420589,0.37000000,
1.1930,0.0410,0.4070,1.0417,1.0287,-0.5045,-1.7199,-0.1636,0.1291,-0.0663,49.25900333,-122.75420589,0.37000000,
1.1960,0.0437,0.4114,1.0378,1.0287,-0.5045,-1.7199,-0.1636,0.1291,-0.0663,49.25900333,-122.75420589,0.37000000,
1.1980,0.0471,0.4168,1.0321,1.0287,-0.5045,-1.7199,-0.1636,0.1291,-0.0663,49.25900333,-122.75420589,0.37000000,
1.1990,0.0503,0.4234,1.0243,1.0287,-0.5045,-1.7199,-0.1636,0.1291,-0.0663,49.25900333,-122.75420589,0.37000000,
1.2020,0.0537,0.4312,1.0155,1.0287,-0.5045,-1.7199,-0.1636,0.1291,-0.0663,49.25900333,-122.75420589,0.37000000,
1.2060,0.0564,0.4373,1.0045,1.0287,-0.5045,-1.7199,-0.1636,0.1291,-0.0663,49.25900333,-122.75420589,0.37000000,
1.2080,0.0574,0.4449,0.9940,1.0287,-0.5045,-1.7199,-0.1636,0.1291,-0.0663,49.25900333,-122.75420589,0.37000000,
1.2100,0.0579,0.4532,0.9835,1.0287,-0.5045,-1.7199,-0.1636,0.1291,-0.0663,49.25900333,-122.75420589,0.37000000,
1.2140,0.0584,0.4573,0.9733,1.0287,-0.5045,-1.7199,-0.1636,0.1291,-0.0663,49.25900333,-122.75420589,0.37000000,
1.2150,0.0584,0.4644,0.9640,1.0287,-0.5045,-1.7199,-0.1636,0.1291,-0.0663,49.25900333,-122.75420589,0.37000000,
1.2190,0.0574,0.4710,0.9545,1.0287,-0.5045,-1.7199,-0.1636,0.1291,-0.0663,49.25900333,-122.75420589,0.37000000,
1.2200,0.0586,0.4747,0.9484,1.0287,-0.5045,-1.7199,-0.1636,0.1291,-0.0663,49.25900333,-122.75420589,0.37000000,
1.2220,0.0564,0.4766,0.9449,1.0287,-0.5045,-1.7199,-0.1636,0.1291,-0.0663,49.25900333,-122.75420589,0.37000000,
1.2250,0.0540,0.4803,0.9432,1.0287,-0.5045,-1.7199,-0.1636,0.1291,-0.0663,49.25900333,-122.75420589,0.37000000,
1.2280,0.0533,0.4800,0.9432,1.0287,-0.5045,-1.7199,-0.1636,0.1291,-0.0663,49.25900333,-122.75420589,0.37000000,
1.2310,0.0498,0.4769,0.9444,1.0287,-0.5045,-1.7199,-0.1636,0.1291,-0.0663,49.25900333,-122.75420589,0.37000000,
1.2340,0.0486,0.4730,0.9474,1.0287,-0.5045,-1.7199,-0.1636,0.1291,-0.0663,49.25900333,-122.75420589,0.37000000,
1.2350,0.0481,0.4666,0.9545,1.0287,-0.5045,-1.7199,-0.1636,0.1291,-0.0663,49.25900333,-122.75420589,0.37000000,
1.2370,0.0452,0.4620,0.9645,1.0287,-0.5045,-1.7199,-0.1636,0.1291,-0.0663,49.25900333,-122.75420589,0.37000000,
1.2400,0.0381,0.4519,0.9808,1.0287,-0.5045,-1.7199,-0.1636,0.1291,-0.0663,49.25900333,-122.75420589,0.37000000,
1.2440,0.0300,0.4429,1.0045,1.0287,-0.5045,-1.7199,-0.1636,0.1291,-0.0663,49.25900333,-122.75420589,0.37000000,
1.2450,0.0300,0.4429,1.0045,1.0287,-0.5045,-1.7199,0.4192,0.0132,0.2648,49.25900333,-122.75420589,0.37000000,
1.2450,0.0188,0.4361,1.0304,1.0287,-0.5045,-1.7199,0.4192,0.0132,0.2648,49.25900333,-122.75420589,0.37000000,
1.2480,0.0061,0.4297,1.0602,1.0287,-0.5045,-1.7199,0.4192,0.0132,0.2648,49.25900333,-122.75420589,0.37000000,
1.2510,-0.0032,0.4246,1.0932,1.0287,-0.5045,-1.7199,0.4192,0.0132,0.2648,49.25900333,-122.75420589,0.37000000,
1.2530,-0.0132,0.4170,1.1252,1.0287,-0.5045,-1.7199,0.4192,0.0132,0.2648,49.25900333,-122.75420589,0.37000000,
1.2550,-0.0203,0.4077,1.1550,1.0287,-0.5045,-1.7199,0.4192,0.0132,0.2648,49.25900333,-122.75420589,0.37000000,
1.2560,-0.0203,0.4077,1.1550,0.0408,-0.8860,0.0598,0.4192,0.0132,0.2648,49.25900333,-122.75420589,0.37000000,
1.2580,-0.0242,0.4004,1.1807,0.0408,-0.8860,0.0598,0.4192,0.0132,0.2648,49.25900333,-122.75420589,0.37000000,
1.2620,-0.0254,0.3914,1.2039,0.0408,-0.8860,0.0598,0.4192,0.0132,0.2648,49.25900333,-122.75420589,0.37000000,
1.2630,-0.0274,0.3833,1.2249,0.0408,-0.8860,0.0598,0.4192,0.0132,0.2648,49.25900333,-122.75420589,0.37000000,
1.2660,-0.0303,0.3743,1.2442,0.0408,-0.8860,0.0598,0.4192,0.0132,0.2648,49.25900333,-122.75420589,0.37000000,
1.2680,-0.0332,0.3652,1.2613,0.0408,-0.8860,0.0598,0.4192,0.0132,0.2648,49.25900333,-122.75420589,0.37000000,
1.2710,-0.0403,0.3594,1.2796,0.0408,-0.8860,0.0598,0.4192,0.0132,0.2648,49.25900333,-122.75420589,0.37000000,
1.2740,-0.0533,0.3550,1.2987,0.0408,-0.8860,0.0598,0.4192,0.0132,0.2648,49.25900333,-122.75420589,0.37000000,
1.2760,-0.0726,0.3518,1.3194,0.0408,-0.8860,0.0598,0.4192,0.0132,0.2648,49.25900333,-122.75420589,0.37000000,
1.2790,-0.0914,0.3496,1.3356,0.0408,-0.8860,0.0598,0.4192,0.0132,0.2648,49.25900333,-122.75420589,0.37000000,
1.2820,-0.1112,0.3481,1.3448,0.0408,-0.8860,0.0598,0.4192,0.0132,0.2648,49.25900333,-122.75420589,0.37000000,
1.2830,-0.1329,0.3471,1.3458,0.0408,-0.8860,0.0598,0.4192,0.0132,0.2648,49.25900333,-122.75420589,0.37000000,
1.2860,-0.1546,0.3491,1.3375,0.0408,-0.8860,0.0598,0.4192,0.0132,0.2648,49.25900333,-122.75420589,0.37000000,
1.2880,-0.1756,0.3520,1.3187,0.0408,-0.8860,0.0598,0.4192,0.0132,0.2648,49.25900333,-122.75420589,0.37000000,
1.2920,-0.1896,0.3576,1.2921,0.0408,-0.8860,0.0598,0.4192,0.0132,0.2648,49.25900333,-122.75420589,0.37000000,
1.2940,-0.2028,0.3616,1.2586,0.0408,-0.8860,0.0598,0.4192,0.0132,0.2648,49.25900333,-122.75420589,0.37000000,
1.2960,-0.2096,0.3669,1.2220,0.0408,-0.8860,0.0598,0.4192,0.0132,0.2648,49.25900333,-122.75420589,0.37000000,
1.2990,-0.2160,0.3728,1.1819,0.0408,-0.8860,0.0598,0.4192,0.0132,0.2648,49.25900333,-122.75420589,0.37000000,
1.3010,-0.2194,0.3811,1.1377,0.0408,-0.8860,0.0598,0.4192,0.0132,0.2648,49.25900333,-122.75420589,0.37000000,
1.3030,-0.2226,0.3892,1.0922,0.0408,-0.8860,0.0598,0.4192,0.0132,0.2648,49.25900333,-122.75420589,0.37000000,
1.3070,-0.2226,0.3992,1.0490,0.0408,-0.8860,0.0598,0.4192,0.0132,0.2648,49.25900333,-122.75420589,0.37000000,
1.3130,-0.2218,0.4119,1.0141,0.0408,-0.8860,0.0598,0.4192,0.0132,0.2648,49.25900333,-122.75420589,0.37000000,
1.3140,-0.2204,0.4322,0.9887,0.0408,-0.8860,0.0598,0.4192,0.0132,0.2648,49.25900333,-122.75420589,0.37000000,
1.3150,-0.2160,0.4497,0.9662,0.0408,-0.8860,0.0598,0.4192,0.0132,0.2648,49.25900333,-122.75420589,0.37000000,
1.3160,-0.2160,0.4497,0.9662,0.0408,-0.8860,0.0598,1.1086,0.5535,0.6065,49.25900333,-122.75420589,0.37000000,
1.3170,-0.2055,0.4683,0.9479,0.0408,-0.8860,0.0598,1.1086,0.5535,0.6065,49.25900333,-122.75420589,0.37000000,
1.3190,-0.1913,0.4893,0.9305,0.0408,-0.8860,0.0598,1.1086,0.5535,0.6065,49.25900333,-122.75420589,0.37000000,
1.3210,-0.1710,0.5074,0.9159,0.0408,-0.8860,0.0598,1.1086,0.5535,0.6065,49.25900333,-122.75420589,0.37000000,
1.3240,-0.1466,0.5216,0.9019,0.0408,-0.8860,0.0598,1.1086,0.5535,0.6065,49.25900333,-122.75420589,0.37000000,
1.3270,-0.1180,0.5304,0.8914,0.0408,-0.8860,0.0598,1.1086,0.5535,0.6065,49.25900333,-122.75420589,0.37000000,
1.3280,-0.1180,0.5304,0.8914,0.3941,-0.8847,1.5798,1.1086,0.5535,0.6065,49.25900333,-122.75420589,0.37000000,
1.3310,-0.0870,0.5331,0.8848,0.3941,-0.8847,1.5798,1.1086,0.5535,0.6065,49.25900333,-122.75420589,0.37000000,
1.3320,-0.0530,0.5318,0.8844,0.3941,-0.8847,1.5798,1.1086,0.5535,0.6065,49.25900333,-122.75420589,0.37000000,
1.3340,-0.0215,0.5282,0.8929,0.3941,-0.8847,1.5798,1.1086,0.5535,0.6065,49.25900333,-122.75420589,0.37000000,
1.3380,0.0120,0.5243,0.9093,0.3941,-0.8847,1.5798,1.1086,0.5535,0.6065,49.25900333,-122.75420589,0.37000000,
1.3390,0.0420,0.5204,0.9298,0.3941,-0.8847,1.5798,1.1086,0.5535,0.6065,49.25900333,-122.75420589,0.37000000,
1.3410,0.0721,0.5160,0.9576,0.3941,-0.8847,1.5798,1.1086,0.5535,0.6065,49.25900333,-122.75420589,0.37000000,
1.3450,0.1002,0.5138,0.9931,0.3941,-0.8847,1.5798,1.1086,0.5535,0.6065,49.25900333,-122.75420589,0.37000000,
1.3470,0.1243,0.5106,1.0361,0.3941,-0.8847,1.5798,1.1086,0.5535,0.6065,49.25900333,-122.75420589,0.37000000,
1.3500,0.1458,0.5074,1.0830,0.3941,-0.8847,1.5798,1.1086,0.5535,0.6065,49.25900333,-122.75420589,0.37000000,
1.3530,0.1647,0.5020,1.1333,0.3941,-0.8847,1.5798,1.1086,0.5535,0.6065,49.25900333,-122.75420589,0.37000000,
1.3540,0.1798,0.4964,1.1863,0.3941,-0.8847,1.5798,1.1086,0.5535,0.6065,49.25900333,-122.75420589,0.37000000,
1.3580,0.1903,0.4864,1.2369,0.3941,-0.8847,1.5798,1.1086,0.5535,0.6065,49.25900333,-122.75420589,0.37000000,
1.3590,0.1996,0.4764,1.2857,0.3941,-0.8847,1.5798,1.1086,0.5535,0.6065,49.25900333,-122.75420589,0.37000000,
1.3620,0.2072,0.4634,1.3280,0.3941,-0.8847,1.5798,1.1086,0.5535,0.6065,49.25900333,-122.75420589,0.37000000,
1.3650,0.2094,0.4493,1.3659,0.3941,-0.8847,1.5798,1.1086,0.5535,0.6065,49.25900333,-122.75420589,0.37000000,
1.3680,0.2116,0.4351,1.3988,0.3941,-0.8847,1.5798,1.1086,0.5535,0.6065,49.25900333,-122.75420589,0.37000000,
1.3690,0.2099,0.4207,1.4289,0.3941,-0.8847,1.5798,1.1086,0.5535,0.6065,49.25900333,-122.75420589,0.37000000,
1.3740,0.2084,0.4050,1.4523,0.3941,-0.8847,1.5798,1.1086,0.5535,0.6065,49.25900333,-122.75420589,0.37000000,
1.3750,0.2025,0.3906,1.4694,0.3941,-0.8847,1.5798,1.1086,0.5535,0.6065,49.25900333,-122.75420589,0.37000000,
1.3790,0.1959,0.3796,1.4807,0.3941,-0.8847,1.5798,1.1086,0.5535,0.6065,49.25900333,-122.75420589,0.37000000,
1.3810,0.1906,0.3664,1.4824,0.3941,-0.8847,1.5798,1.1086,0.5535,0.6065,49.25900333,-122.75420589,0.37000000,
1.3840,0.1810,0.3555,1.4746,0.3941,-0.8847,1.5798,1.1086,0.5535,0.6065,49.25900333,-122.75420589,0.37000000,
1.3860,0.1810,0.3555,1.4746,0.3941,-0.8847,1.5798,0.3890,0.2206,0.6387,49.25900333,-122.75420589,0.37000000,
1.3870,0.1730,0.3440,1.4604,0.3941,-0.8847,1.5798,0.3890,0.2206,0.6387,49.25900333,-122.75420589,0.37000000,
1.3880,0.1627,0.3327,1.4411,0.3941,-0.8847,1.5798,0.3890,0.2206,0.6387,49.25900333,-122.75420589,0.37000000,
1.3910,0.1524,0.3222,1.4194,0.3941,-0.8847,1.5798,0.3890,0.2206,0.6387,49.25900333,-122.75420589,0.37000000,
1.3940,0.1427,0.3137,1.3959,0.3941,-0.8847,1.5798,0.3890,0.2206,0.6387,49.25900333,-122.75420589,0.37000000,
1.3960,0.1324,0.3054,1.3732,0.3941,-0.8847,1.5798,0.3890,0.2206,0.6387,49.25900333,-122.75420589,0.37000000,
1.3980,0.1231,0.2988,1.3480,0.3941,-0.8847,1.5798,0.3890,0.2206,0.6387,49.25900333,-122.75420589,0.37000000,
1.3990,0.1231,0.2988,1.3480,-1.3986,-1.3797,3.0113,0.3890,0.2206,0.6387,49.25900333,-122.75420589,0.37000000,
1.4000,0.1138,0.2956,1.3192,-1.3986,-1.3797,3.0113,0.3890,0.2206,0.6387,49.25900333,-122.75420589,0.37000000,
1.4030,0.1055,0.2944,1.2904,-1.3986,-1.3797,3.0113,0.3890,0.2206,0.6387,49.25900333,-122.75420589,0.37000000,
1.4060,0.1004,0.2924,1.2603,-1.3986,-1.3797,3.0113,0.3890,0.2206,0.6387,49.25900333,-122.75420589,0.37000000,
1.4070,0.0945,0.2951,1.2305,-1.3986,-1.3797,3.0113,0.3890,0.2206,0.6387,49.25900333,-122.75420589,0.37000000,
1.4110,0.0889,0.2971,1.2034,-1.3986,-1.3797,3.0113,0.3890,0.2206,0.6387,49.25900333,-122.75420589,0.37000000,
1.4140,0.0828,0.3007,1.1792,-1.3986,-1.3797,3.0113,0.3890,0.2206,0.6387,49.25900333,-122.75420589,0.37000000,
1.4150,0.0760,0.3039,1.1565,-1.3986,-1.3797,3.0113,0.3890,0.2206,0.6387,49.25900333,-122.75420589,0.37000000,
1.4190,0.0684,0.3068,1.1367,-1.3986,-1.3797,3.0113,0.3890,0.2206,0.6387,49.25900333,-122.75420589,0.37000000,
1.4200,0.0618,0.3073,1.1186,-1.3986,-1.3797,3.0113,0.3890,0.2206,0.6387,49.25900333,-122.75420589,0.37000000,
1.4230,0.0547,0.3103,1.1030,-1.3986,-1.3797,3.0113,0.3890,0.2206,0.6387,49.25900333,-122.75420589,0.37000000,
1.4260,0.0471,0.3090,1.0908,-1.3986,-1.3797,3.0113,0.3890,0.2206,0.6387,49.25900333,-122.75420589,0.37000000,
1.4300,0.0418,0.3078,1.0822,-1.3986,-1.3797,3.0113,0.3890,0.2206,0.6387,49.25900333,-122.75420589,0.37000000,
1.4320,0.0352,0.3039,1.0734,-1.3986,-1.3797,3.0113,0.3890,0.2206,0.6387,49.25900333,-122.75420589,0.37000000,
1.4350,0.0266,0.3022,1.0690,-1.3986,-1.3797,3.0113,0.3890,0.2206,0.6387,49.25900333,-122.75420589,0.37000000,
1.4360,0.0195,0.3002,1.0634,-1.3986,-1.3797,3.0113,0.3890,0.2206,0.6387,49.25900333,-122.75420589,0.37000000,
1.4390,0.0122,0.2968,1.0595,-1.3986,-1.3797,3.0113,0.3890,0.2206,0.6387,49.25900333,-122.75420589,0.37000000,
1.4410,0.0049,0.2932,1.0585,-1.3986,-1.3797,3.0113,0.3890,0.2206,0.6387,49.25900333,-122.75420589,0.37000000,
1.4430,-0.0005,0.2895,1.0607,-1.3986,-1.3797,3.0113,0.3890,0.2206,0.6387,49.25900333,-122.75420589,0.37000000,
1.4470,-0.0056,0.2853,1.0615,-1.3986,-1.3797,3.0113,0.3890,0.2206,0.6387,49.25900333,-122.75420589,0.37000000,
1.4490,-0.0115,0.2822,1.0617,-1.3986,-1.3797,3.0113,0.3890,0.2206,0.6387,49.25900333,-122.75420589,0.37000000,
1.4520,-0.0151,0.2809,1.0578,-1.3986,-1.3797,3.0113,0.3890,0.2206,0.6387,49.25900333,-122.75420589,0.37000000,
1.4550,-0.0164,0.2778,1.0522,-1.3986,-1.3797,3.0113,0.3890,0.2206,0.6387,49.25900333,-122.75420589,0.37000000,
1.4560,-0.0183,0.2765,1.0446,-1.3986,-1.3797,3.0113,0.3890,0.2206,0.6387,49.25900333,-122.75420589,0.37000000,
1.4580,-0.0183,0.2765,1.0446,-1.3986,-1.3797,3.0113,0.0963,0.4006,-0.0928,49.25900333,-122.75420589,0.37000000,
1.4590,-0.0205,0.2741,1.0341,-1.3986,-1.3797,3.0113,0.0963,0.4006,-0.0928,49.25900333,-122.75420589,0.37000000,
1.4630,-0.0203,0.2736,1.0221,-1.3986,-1.3797,3.0113,0.0963,0.4006,-0.0928,49.25900333,-122.75420589,0.37000000,
1.4650,-0.0203,0.2734,1.0063,-1.3986,-1.3797,3.0113,0.0963,0.4006,-0.0928,49.25900333,-122.75420589,0.37000000,
1.4660,-0.0183,0.2763,0.9892,-1.3986,-1.3797,3.0113,0.0963,0.4006,-0.0928,49.25900333,-122.75420589,0.37000000,
1.4690,-0.0159,0.2805,0.9691,-1.3986,-1.3797,3.0113,0.0963,0.4006,-0.0928,49.25900333,-122.75420589,0.37000000,
1.4710,-0.0159,0.2805,0.9691,1.5245,-0.9919,3.6263,0.0963,0.4006,-0.0928,49.25900333,-122.75420589,0.37000000,
1.4720,-0.0139,0.2870,0.9466,1.5245,-0.9919,3.6263,0.0963,0.4006,-0.0928,49.25900333,-122.75420589,0.37000000,
1.4740,-0.0112,0.2936,0.9222,1.5245,-0.9919,3.6263,0.0963,0.4006,-0.0928,49.25900333,-122.75420589,0.37000000,
1.4770,-0.0068,0.3007,0.8980,1.5245,-0.9919,3.6263,0.0963,0.4006,-0.0928,49.25900333,-122.75420589,0.37000000,
1.4830,-0.0039,0.3093,0.8724,1.5245,-0.9919,3.6263,0.0963,0.4006,-0.0928,49.25900333,-122.75420589,0.37000000,
1.4850,0.0007,0.3166,0.8470,1.5245,-0.9919,3.6263,0.0963,0.4006,-0.0928,49.25900333,-122.75420589,0.37000000,
1.4860,0.0078,0.3225,0.8221,1.5245,-0.9919,3.6263,0.0963,0.4006,-0.0928,49.25900333,-122.75420589,0.37000000,
1.4870,0.0125,0.3313,0.7959,1.5245,-0.9919,3.6263,0.0963,0.4006,-0.0928,49.25900333,-122.75420589,0.37000000,
1.4890,0.0183,0.3386,0.7717,1.5245,-0.9919,3.6263,0.0963,0.4006,-0.0928,49.25900333,-122.75420589,0.37000000,
1.4910,0.0232,0.3449,0.7463,1.5245,-0.9919,3.6263,0.0963,0.4006,-0.0928,49.25900333,-122.75420589,0.37000000,
1.4960,0.0288,0.3511,0.7231,1.5245,-0.9919,3.6263,0.0963,0.4006,-0.0928,49.25900333,-122.75420589,0.37000000,
1.4970,0.0340,0.3601,0.6997,1.5245,-0.9919,3.6263,0.0963,0.4006,-0.0928,49.25900333,-122.75420589,0.37000000,
1.4990,0.0386,0.3655,0.6777,1.5245,-0.9919,3.6263,0.0963,0.4006,-0.0928,49.25900333,-122.75420589,0.37000000,
1.5030,0.0413,0.3730,0.6594,1.5245,-0.9919,3.6263,0.0963,0.4006,-0.0928,49.25900333,-122.75420589,0.37000000,
1.5040,0.0440,0.3821,0.6442,1.5245,-0.9919,3.6263,0.0963,0.4006,-0.0928,49.25900333,-122.75420589,0.37000000,
1.5070,0.0471,0.3875,0.6293,1.5245,-0.9919,3.6263,0.0963,0.4006,-0.0928,49.25900333,-122.75420589,0.37000000,
1.5100,0.0496,0.3923,0.6168,1.5245,-0.9919,3.6263,0.0963,0.4006,-0.0928,49.25900333,-122.75420589,0.37000000,
1.5140,0.0530,0.3953,0.6063,1.5245,-0.9919,3.6263,0.0963,0.4006,-0.0928,49.25900333,-122.75420589,0.37000000,
1.5150,0.0550,0.3980,0.5983,1.5245,-0.9919,3.6263,0.0963,0.4006,-0.0928,49.25900333,-122.75420589,0.37000000,
1.5180,0.0574,0.4016,0.5961,1.5245,-0.9919,3.6263,0.0963,0.4006,-0.0928,49.25900333,-122.75420589,0.37000000,
1.5200,0.0591,0.4021,0.5951,1.5245,-0.9919,3.6263,0.0963,0.4006,-0.0928,49.25900333,-122.75420589,0.37000000,
1.5220,0.0577,0.4019,0.5985,1.5245,-0.9919,3.6263,0.0963,0.4006,-0.0928,49.25900333,-122.75420589,0.37000000,
1.5250,0.0589,0.4021,0.6044,1.5245,-0.9919,3.6263,0.0963,0.4006,-0.0928,49.25900333,-122.75420589,0.37000000,
1.5310,0.0589,0.4021,0.6044,1.5245,-0.9919,3.6263,0.3617,0.4744,0.3613,49.25900333,-122.75420589,0.37000000,
1.5320,0.0599,0.3994,0.6112,1.5245,-0.9919,3.6263,0.3617,0.4744,0.3613,49.25900333,-122.75420589,0.37000000,
1.5340,0.0633,0.3962,0.6203,1.5245,-0.9919,3.6263,0.3617,0.4744,0.3613,49.25900333,-122.75420589,0.37000000,
1.5350,0.0635,0.3882,0.6347,1.5245,-0.9919,3.6263,0.3617,0.4744,0.3613,49.25900333,-122.75420589,0.37000000,
1.5360,0.0650,0.3816,0.6530,1.5245,-0.9919,3.6263,0.3617,0.4744,0.3613,49.25900333,-122.75420589,0.37000000,
1.5380,0.0674,0.3760,0.6745,1.5245,-0.9919,3.6263,0.3617,0.4744,0.3613,49.25900333,-122.75420589,0.37000000,
1.5410,0.0689,0.3689,0.6967,1.5245,-0.9919,3.6263,0.3617,0.4744,0.3613,49.25900333,-122.75420589,0.37000000,
1.5420,0.0689,0.3689,0.6967,0.5502,-2.5009,2.2940,0.3617,0.4744,0.3613,49.25900333,-122.75420589,0.37000000,
1.5430,0.0694,0.3596,0.7158,0.5502,-2.5009,2.2940,0.3617,0.4744,0.3613,49.25900333,-122.75420589,0.37000000,
1.5470,0.0721,0.3506,0.7326,0.5502,-2.5009,2.2940,0.3617,0.4744,0.3613,49.25900333,-122.75420589,0.37000000,
1.5490,0.0733,0.3420,0.7483,0.5502,-2.5009,2.2940,0.3617,0.4744,0.3613,49.25900333,-122.75420589,0.37000000,
1.5510,0.0748,0.3354,0.7634,0.5502,-2.5009,2.2940,0.3617,0.4744,0.3613,49.25900333,-122.75420589,0.37000000,
1.5540,0.0770,0.3296,0.7786,0.5502,-2.5009,2.2940,0.3617,0.4744,0.3613,49.25900333,-122.75420589,0.37000000,
1.5550,0.0804,0.3234,0.7918,0.5502,-2.5009,2.2940,0.3617,0.4744,0.3613,49.25900333,-122.75420589,0.37000000,
1.5590,0.0804,0.3198,0.8037,0.5502,-2.5009,2.2940,0.3617,0.4744,0.3613,49.25900333,-122.75420589,0.37000000,
1.5620,0.0792,0.3188,0.8125,0.5502,-2.5009,2.2940,0.3617,0.4744,0.3613,49.25900333,-122.75420589,0.37000000,
1.5640,0.0809,0.3188,0.8203,0.5502,-2.5009,2.2940,0.3617,0.4744,0.3613,49.25900333,-122.75420589,0.37000000,
1.5660,0.0811,0.3183,0.8250,0.5502,-2.5009,2.2940,0.3617,0.4744,0.3613,49.25900333,-122.75420589,0.37000000,
1.5680,0.0796,0.3195,0.8282,0.5502,-2.5009,2.2940,0.3617,0.4744,0.3613,49.25900333,-122.75420589,0.37000000,
1.5700,0.0804,0.3195,0.8277,0.5502,-2.5009,2.2940,0.3617,0.4744,0.3613,49.25900333,-122.75420589,0.37000000,
1.5730,0.0806,0.3205,0.8252,0.5502,-2.5009,2.2940,0.3617,0.4744,0.3613,49.25900333,-122.75420589,0.37000000,
1.5760,0.0799,0.3220,0.8213,0.5502,-2.5009,2.2940,0.3617,0.4744,0.3613,49.25900333,-122.75420589,0.37000000,
1.5790,0.0821,0.3227,0.8179,0.5502,-2.5009,2.2940,0.3617,0.4744,0.3613,49.25900333,-122.75420589,0.37000000,
1.5810,0.0804,0.3239,0.8130,0.5502,-2.5009,2.2940,0.3617,0.4744,0.3613,49.25900333,-122.75420589,0.37000000,
1.5830,0.0796,0.3271,0.8069,0.5502,-2.5009,2.2940,0.3617,0.4744,0.3613,49.25900333,-122.75420589,0.37000000,
1.5860,0.0772,0.3300,0.7986,0.5502,-2.5009,2.2940,0.3617,0.4744,0.3613,49.25900333,-122.75420589,0.37000000,
1.5880,0.0757,0.3327,0.7896,0.5502,-2.5009,2.2940,0.3617,0.4744,0.3613,49.25900333,-122.75420589,0.37000000,
1.5900,0.0743,0.3379,0.7798,0.5502,-2.5009,2.2940,0.3617,0.4744,0.3613,49.25900333,-122.75420589,0.37000000,
1.5940,0.0718,0.3415,0.7678,0.5502,-2.5009,2.2940,0.3617,0.4744,0.3613,49.25900333,-122.75420589,0.37000000,
1.5980,0.0716,0.3467,0.7580,0.5502,-2.5009,2.2940,0.3617,0.4744,0.3613,49.25900333,-122.75420589,0.37000000,
1.5990,0.0718,0.3520,0.7473,0.5502,-2.5009,2.2940,0.3617,0.4744,0.3613,49.25900333,-122.75420589,0.37000000,
1.6010,0.0718,0.3520,0.7473,0.5502,-2.5009,2.2940,0.2590,-0.0767,0.1435,49.25900333,-122.75420589,0.37000000,
1.6020,0.0716,0.3579,0.7380,0.5502,-2.5009,2.2940,0.2590,-0.0767,0.1435,49.25900333,-122.75420589,0.37000000,
1.6030,0.0711,0.3620,0.7275,0.5502,-2.5009,2.2940,0.2590,-0.0767,0.1435,49.25900333,-122.75420589,0.37000000,
1.6060,0.0718,0.3669,0.7182,0.5502,-2.5009,2.2940,0.2590,-0.0767,0.1435,49.25900333,-122.75420589,0.37000000,
1.6090,0.0723,0.3696,0.7126,0.5502,-2.5009,2.2940,0.2590,-0.0767,0.1435,49.25900333,-122.75420589,0.37000000,
1.6140,0.0711,0.3740,0.7072,0.5502,-2.5009,2.2940,0.2590,-0.0767,0.1435,49.25900333,-122.75420589,0.37000000,
1.6150,0.0711,0.3740,0.7072,0.4843,-1.9057,-1.3958,0.2590,-0.0767,0.1435,49.25900333,-122.75420589,0.37000000,
1.6200,0.0721,0.3791,0.7021,0.4843,-1.9057,-1.3958,0.2590,-0.0767,0.1435,49.25900333,-122.75420589,0.37000000,
1.6220,0.0733,0.3857,0.6992,0.4843,-1.9057,-1.3958,0.2590,-0.0767,0.1435,49.25900333,-122.75420589,0.37000000,
1.6240,0.0735,0.3904,0.7004,0.4843,-1.9057,-1.3958,0.2590,-0.0767,0.1435,49.25900333,-122.75420589,0.37000000,
1.6250,0.0760,0.3958,0.7082,0.4843,-1.9057,-1.3958,0.2590,-0.0767,0.1435,49.25900333,-122.75420589,0.37000000,
1.6270,0.0818,0.4002,0.7204,0.4843,-1.9057,-1.3958,0.2590,-0.0767,0.1435,49.25900333,-122.75420589,0.37000000,
1.6280,0.0872,0.4043,0.7339,0.4843,-1.9057,-1.3958,0.2590,-0.0767,0.1435,49.25900333,-122.75420589,0.37000000,
1.6300,0.0911,0.4050,0.7468,0.4843,-1.9057,-1.3958,0.2590,-0.0767,0.1435,49.25900333,-122.75420589,0.37000000,
1.6310,0.0943,0.4058,0.7615,0.4843,-1.9057,-1.3958,0.2590,-0.0767,0.1435,49.25900333,-122.75420589,0.37000000,
1.6360,0.0994,0.4041,0.7773,0.4843,-1.9057,-1.3958,0.2590,-0.0767,0.1435,49.25900333,-122.75420589,0.37000000,
1.6380,0.1024,0.4043,0.7935,0.4843,-1.9057,-1.3958,0.2590,-0.0767,0.1435,49.25900333,-122.75420589,0.37000000,
1.6390,0.1053,0.4019,0.8103,0.4843,-1.9057,-1.3958,0.2590,-0.0767,0.1435,49.25900333,-122.75420589,0.37000000,
1.6420,0.1070,0.4016,0.8240,0.4843,-1.9057,-1.3958,0.2590,-0.0767,0.1435,49.25900333,-122.75420589,0.37000000,
1.6450,0.1058,0.4002,0.8370,0.4843,-1.9057,-1.3958,0.2590,-0.0767,0.1435,49.25900333,-122.75420589,0.37000000,
1.6490,0.1041,0.3980,0.8506,0.4843,-1.9057,-1.3958,0.2590,-0.0767,0.1435,49.25900333,-122.75420589,0.37000000,
1.6500,0.1016,0.3953,0.8614,0.4843,-1.9057,-1.3958,0.2590,-0.0767,0.1435,49.25900333,-122.75420589,0.37000000,
1.6530,0.0980,0.3943,0.8721,0.4843,-1.9057,-1.3958,0.2590,-0.0767,0.1435,49.25900333,-122.75420589,0.37000000,
1.6540,0.0943,0.3916,0.8795,0.4843,-1.9057,-1.3958,0.2590,-0.0767,0.1435,49.25900333,-122.75420589,0.37000000,
1.6570,0.0892,0.3877,0.8841,0.4843,-1.9057,-1.3958,0.2590,-0.0767,0.1435,49.25900333,-122.75420589,0.37000000,
1.6600,0.0818,0.3862,0.8870,0.4843,-1.9057,-1.3958,0.2590,-0.0767,0.1435,49.25900333,-122.75420589,0.37000000,
1.6650,0.0738,0.3833,0.8885,0.4843,-1.9057,-1.3958,0.2590,-0.0767,0.1435,49.25900333,-122.75420589,0.37000000,
1.6660,0.0667,0.3789,0.8912,0.4843,-1.9057,-1.3958,0.2590,-0.0767,0.1435,49.25900333,-122.75420589,0.37000000,
1.6670,0.0586,0.3757,0.8941,0.4843,-1.9057,-1.3958,0.2590,-0.0767,0.1435,49.25900333,-122.75420589,0.37000000,
1.6700,0.0523,0.3740,0.8968,0.4843,-1.9057,-1.3958,0.2590,-0.0767,0.1435,49.25900333,-122.75420589,0.37000000,
1.6700,0.0523,0.3740,0.8968,0.4843,-1.9057,-1.3958,0.2707,-0.1534,-0.1207,49.25900333,-122.75420589,0.37000000,
1.6720,0.0435,0.3718,0.8978,0.4843,-1.9057,-1.3958,0.2707,-0.1534,-0.1207,49.25900333,-122.75420589,0.37000000,
1.6740,0.0337,0.3701,0.8995,0.4843,-1.9057,-1.3958,0.2707,-0.1534,-0.1207,49.25900333,-122.75420589,0.37000000,
1.6780,0.0252,0.3682,0.9034,0.4843,-1.9057,-1.3958,0.2707,-0.1534,-0.1207,49.25900333,-122.75420589,0.37000000,
1.6810,0.0188,0.3667,0.9049,0.4843,-1.9057,-1.3958,0.2707,-0.1534,-0.1207,49.25900333,-122.75420589,0.37000000,
1.6830,0.0132,0.3655,0.9068,0.4843,-1.9057,-1.3958,0.2707,-0.1534,-0.1207,49.25900333,-122.75420589,0.37000000,
1.6830,0.0132,0.3655,0.9068,0.8091,-2.1766,-0.5821,0.2707,-0.1534,-0.1207,49.25900333,-122.75420589,0.37000000,
1.6850,0.0054,0.3638,0.9095,0.8091,-2.1766,-0.5821,0.2707,-0.1534,-0.1207,49.25900333,-122.75420589,0.37000000,
1.6870,-0.0032,0.3638,0.9100,0.8091,-2.1766,-0.5821,0.2707,-0.1534,-0.1207,49.25900333,-122.75420589,0.37000000,
1.6890,-0.0115,0.3628,0.9112,0.8091,-2.1766,-0.5821,0.2707,-0.1534,-0.1207,49.25900333,-122.75420589,0.37000000,
1.6930,-0.0181,0.3645,0.9115,0.8091,-2.1766,-0.5821,0.2707,-0.1534,-0.1207,49.25900333,-122.75420589,0.37000000,
1.6950,-0.0232,0.3645,0.9115,0.8091,-2.1766,-0.5821,0.2707,-0.1534,-0.1207,49.25900333,-122.75420589,0.37000000,
1.6970,-0.0288,0.3642,0.9117,0.8091,-2.1766,-0.5821,0.2707,-0.1534,-0.1207,49.25900333,-122.75420589,0.37000000,
1.7000,-0.0340,0.3647,0.9110,0.8091,-2.1766,-0.5821,0.2707,-0.1534,-0.1207,49.25900333,-122.75420589,0.37000000,
1.7030,-0.0393,0.3694,0.9117,0.8091,-2.1766,-0.5821,0.2707,-0.1534,-0.1207,49.25900333,-122.75420589,0.37000000,
1.7060,-0.0440,0.3728,0.9107,0.8091,-2.1766,-0.5821,0.2707,-0.1534,-0.1207,49.25900333,-122.75420589,0.37000000,
1.7110,-0.0459,0.3767,0.9124,0.8091,-2.1766,-0.5821,0.2707,-0.1534,-0.1207,49.25900333,-122.75420589,0.37000000,
1.7120,-0.0501,0.3828,0.9134,0.8091,-2.1766,-0.5821,0.2707,-0.1534,-0.1207,49.25900333,-122.75420589,0.37000000,
1.7140,-0.0559,0.3875,0.9151,0.8091,-2.1766,-0.5821,0.2707,-0.1534,-0.1207,49.25900333,-122.75420589,0.37000000,
1.7150,-0.0579,0.3933,0.9176,0.8091,-2.1766,-0.5821,0.2707,-0.1534,-0.1207,49.25900333,-122.75420589,0.37000000,
1.7180,-0.0608,0.3992,0.9195,0.8091,-2.1766,-0.5821,0.2707,-0.1534,-0.1207,49.25900333,-122.75420589,0.37000000,
1.7200,-0.0657,0.4031,0.9198,0.8091,-2.1766,-0.5821,0.2707,-0.1534,-0.1207,49.25900333,-122.75420589,0.37000000,
1.7220,-0.0691,0.4094,0.9208,0.8091,-2.1766,-0.5821,0.2707,-0.1534,-0.1207,49.25900333,-122.75420589,0.37000000,
1.7250,-0.0713,0.4143,0.9225,0.8091,-2.1766,-0.5821,0.2707,-0.1534,-0.1207,49.25900333,-122.75420589,0.37000000,
1.7280,-0.0750,0.4204,0.9227,0.8091,-2.1766,-0.5821,0.2707,-0.1534,-0.1207,49.25900333,-122.75420589,0.37000000,
1.7320,-0.0784,0.4261,0.9222,0.8091,-2.1766,-0.5821,0.2707,-0.1534,-0.1207,49.25900333,-122.75420589,0.37000000,
1.7340,-0.0826,0.4309,0.9200,0.8091,-2.1766,-0.5821,0.2707,-0.1534,-0.1207,49.25900333,-122.75420589,0.37000000,
1.7370,-0.0867,0.4363,0.9151,0.8091,-2.1766,-0.5821,0.2707,-0.1534,-0.1207,49.25900333,-122.75420589,0.37000000,
1.7380,-0.0901,0.4424,0.9093,0.8091,-2.1766,-0.5821,0.2707,-0.1534,-0.1207,49.25900333,-122.75420589,0.37000000,
1.7400,-0.0901,0.4424,0.9093,0.8091,-2.1766,-0.5821,0.0238,-0.1117,-0.3808,49.25900333,-122.75420589,0.37000000,
1.7410,-0.0943,0.4483,0.9039,0.8091,-2.1766,-0.5821,0.0238,-0.1117,-0.3808,49.25900333,-122.75420589,0.37000000,
1.7440,-0.0982,0.4537,0.9000,0.8091,-2.1766,-0.5821,0.0238,-0.1117,-0.3808,49.25900333,-122.75420589,0.37000000,
1.7470,-0.1024,0.4603,0.8975,0.8091,-2.1766,-0.5821,0.0238,-0.1117,-0.3808,49.25900333,-122.75420589,0.37000000,
1.7480,-0.1046,0.4656,0.8941,0.8091,-2.1766,-0.5821,0.0238,-0.1117,-0.3808,49.25900333,-122.75420589,0.37000000,
1.7510,-0.1058,0.4722,0.8931,0.8091,-2.1766,-0.5821,0.0238,-0.1117,-0.3808,49.25900333,-122.75420589,0.37000000,
1.7540,-0.1070,0.4778,0.8929,0.8091,-2.1766,-0.5821,0.0238,-0.1117,-0.3808,49.25900333,-122.75420589,0.37000000,
1.7550,-0.1070,0.4778,0.8929,0.8663,-1.5955,-0.1041,0.0238,-0.1117,-0.3808,49.25900333,-122.75420589,0.37000000,
1.7560,-0.1075,0.4835,0.8934,0.8663,-1.5955,-0.1041,0.0238,-0.1117,-0.3808,49.25900333,-122.75420589,0.37000000,
1.7580,-0.1077,0.4896,0.8936,0.8663,-1.5955,-0.1041,0.0238,-0.1117,-0.3808,49.25900333,-122.75420589,0.37000000,
1.7610,-0.1080,0.4937,0.8909,0.8663,-1.5955,-0.1041,0.0238,-0.1117,-0.3808,49.25900333,-122.75420589,0.37000000,
1.7650,-0.1055,0.4976,0.8897,0.8663,-1.5955,-0.1041,0.0238,-0.1117,-0.3808,49.25900333,-122.75420589,0.37000000,
1.7660,-0.1036,0.5020,0.8878,0.8663,-1.5955,-0.1041,0.0238,-0.1117,-0.3808,49.25900333,-122.75420589,0.37000000,
1.7680,-0.1014,0.5050,0.8846,0.8663,-1.5955,-0.1041,0.0238,-0.1117,-0.3808,49.25900333,-122.75420589,0.37000000,
1.7710,-0.1014,0.5067,0.8853,0.8663,-1.5955,-0.1041,0.0238,-0.1117,-0.3808,49.25900333,-122.75420589,0.37000000,
1.7740,-0.1009,0.5096,0.8844,0.8663,-1.5955,-0.1041,0.0238,-0.1117,-0.3808,49.25900333,-122.75420589,0.37000000,
1.7760,-0.1011,0.5106,0.8858,0.8663,-1.5955,-0.1041,0.0238,-0.1117,-0.3808,49.25900333,-122.75420589,0.37000000,
1.7800,-0.1031,0.5098,0.8907,0.8663,-1.5955,-0.1041,0.0238,-0.1117,-0.3808,49.25900333,-122.75420589,0.37000000,
1.7810,-0.1021,0.5091,0.8968,0.8663,-1.5955,-0.1041,0.0238,-0.1117,-0.3808,49.25900333,-122.75420589,0.37000000,
1.7860,-0.1006,0.5074,0.9041,0.8663,-1.5955,-0.1041,0.0238,-0.1117,-0.3808,49.25900333,-122.75420589,0.37000000,
1.7870,-0.1004,0.5054,0.9117,0.8663,-1.5955,-0.1041,0.0238,-0.1117,-0.3808,49.25900333,-122.75420589,0.37000000,
1.7880,-0.1014,0.5028,0.9198,0.8663,-1.5955,-0.1041,0.0238,-0.1117,-0.3808,49.25900333,-122.75420589,0.37000000,
1.7930,-0.1021,0.4993,0.9278,0.8663,-1.5955,-0.1041,0.0238,-0.1117,-0.3808,49.25900333,-122.75420589,0.37000000,
1.7940,-0.1011,0.4952,0.9354,0.8663,-1.5955,-0.1041,0.0238,-0.1117,-0.3808,49.25900333,-122.75420589,0.37000000,
1.7990,-0.1026,0.4908,0.9427,0.8663,-1.5955,-0.1041,0.0238,-0.1117,-0.3808,49.25900333,-122.75420589,0.37000000,
1.8000,-0.1016,0.4857,0.9488,0.8663,-1.5955,-0.1041,0.0238,-0.1117,-0.3808,49.25900333,-122.75420589,0.37000000,
1.8050,-0.1024,0.4835,0.9530,0.8663,-1.5955,-0.1041,0.0238,-0.1117,-0.3808,49.25900333,-122.75420589,0.37000000,
1.8060,-0.1038,0.4793,0.9564,0.8663,-1.5955,-0.1041,0.0238,-0.1117,-0.3808,49.25901718,-122.75420065,0.75000000,
1.8070,-0.1048,0.4742,0.9591,0.8663,-1.5955,-0.1041,0.0238,-0.1117,-0.3808,49.25901718,-122.75420065,0.75000000,
1.8100,-0.1038,0.4703,0.9606,0.8663,-1.5955,-0.1041,0.0238,-0.1117,-0.3808,49.25901718,-122.75420065,0.75000000,
1.8130,-0.1038,0.4703,0.9606,0.8663,-1.5955,-0.1041,0.0029,-0.1247,-0.2537,49.25901718,-122.75420065,0.75000000,
1.8140,-0.1024,0.4688,0.9613,0.8663,-1.5955,-0.1041,0.0029,-0.1247,-0.2537,49.25901718,-122.75420065,0.75000000,
1.8140,-0.1009,0.4673,0.9620,0.8663,-1.5955,-0.1041,0.0029,-0.1247,-0.2537,49.25901718,-122.75420065,0.75000000,
1.8160,-0.0989,0.4671,0.9625,0.8663,-1.5955,-0.1041,0.0029,-0.1247,-0.2537,49.25901718,-122.75420065,0.75000000,
1.8200,-0.0985,0.4661,0.9611,0.8663,-1.5955,-0.1041,0.0029,-0.1247,-0.2537,49.25901718,-122.75420065,0.75000000,
1.8230,-0.0950,0.4668,0.9593,0.8663,-1.5955,-0.1041,0.0029,-0.1247,-0.2537,49.25901718,-122.75420065,0.75000000,
1.8260,-0.0916,0.4683,0.9552,0.8663,-1.5955,-0.1041,0.0029,-0.1247,-0.2537,49.25901718,-122.75420065,0.75000000,
1.8270,-0.0916,0.4683,0.9552,-0.4667,-1.3753,0.7082,0.0029,-0.1247,-0.2537,49.25901718,-122.75420065,0.75000000,
1.8270,-0.0879,0.4686,0.9491,-0.4667,-1.3753,0.7082,0.0029,-0.1247,-0.2537,49.25901718,-122.75420065,0.75000000,
1.8300,-0.0845,0.4698,0.9422,-0.4667,-1.3753,0.7082,0.0029,-0.1247,-0.2537,49.25901718,-122.75420065,0.75000000,
1.8320,-0.0789,0.4712,0.9330,-0.4667,-1.3753,0.7082,0.0029,-0.1247,-0.2537,49.25901718,-122.75420065,0.75000000,
1.8350,-0.0721,0.4747,0.9249,-0.4667,-1.3753,0.7082,0.0029,-0.1247,-0.2537,49.25901718,-122.75420065,0.75000000,
1.8370,-0.0672,0.4788,0.9166,-0.4667,-1.3753,0.7082,0.0029,-0.1247,-0.2537,49.25901718,-122.75420065,0.75000000,
1.8390,-0.0635,0.4835,0.9063,-0.4667,-1.3753,0.7082,0.0029,-0.1247,-0.2537,49.25901718,-122.75420065,0.75000000,
1.8410,-0.0591,0.4883,0.8961,-0.4667,-1.3753,0.7082,0.0029,-0.1247,-0.2537,49.25901718,-122.75420065,0.75000000,
1.8450,-0.0555,0.4942,0.8863,-0.4667,-1.3753,0.7082,0.0029,-0.1247,-0.2537,49.25901718,-122.75420065,0.75000000,
1.8480,-0.0515,0.4998,0.8768,-0.4667,-1.3753,0.7082,0.0029,-0.1247,-0.2537,49.25901718,-122.75420065,0.75000000,
1.8490,-0.0469,0.5032,0.8641,-0.4667,-1.3753,0.7082,0.0029,-0.1247,-0.2537,49.25901718,-122.75420065,0.75000000,
1.8530,-0.0423,0.5076,0.8509,-0.4667,-1.3753,0.7082,0.0029,-0.1247,-0.2537,49.25901718,-122.75420065,0.75000000,
1.8550,-0.0396,0.5106,0.8411,-0.4667,-1.3753,0.7082,0.0029,-0.1247,-0.2537,49.25901718,-122.75420065,0.75000000,
1.8570,-0.0320,0.5138,0.8306,-0.4667,-1.3753,0.7082,0.0029,-0.1247,-0.2537,49.25901718,-122.75420065,0.75000000,
1.8600,-0.0274,0.5182,0.8206,-0.4667,-1.3753,0.7082,0.0029,-0.1247,-0.2537,49.25901718,-122.75420065,0.75000000,
1.8640,-0.0232,0.5228,0.8128,-0.4667,-1.3753,0.7082,0.0029,-0.1247,-0.2537,49.25901718,-122.75420065,0.75000000,
1.8660,-0.0193,0.5274,0.8035,-0.4667,-1.3753,0.7082,0.0029,-0.1247,-0.2537,49.25901718,-122.75420065,0.75000000,
1.8670,-0.0149,0.5306,0.7954,-0.4667,-1.3753,0.7082,0.0029,-0.1247,-0.2537,49.25901718,-122.75420065,0.75000000,
1.8700,-0.0120,0.5355,0.7908,-0.4667,-1.3753,0.7082,0.0029,-0.1247,-0.2537,49.25901718,-122.75420065,0.75000000,
1.8720,-0.0103,0.5377,0.7859,-0.4667,-1.3753,0.7082,0.0029,-0.1247,-0.2537,49.25901718,-122.75420065,0.75000000,
1.8750,-0.0059,0.5409,0.7808,-0.4667,-1.3753,0.7082,0.0029,-0.1247,-0.2537,49.25901718,-122.75420065,0.75000000,
1.8770,-0.0056,0.5418,0.7788,-0.4667,-1.3753,0.7082,0.0029,-0.1247,-0.2537,49.25901718,-122.75420065,0.75000000,
1.8810,-0.0056,0.5443,0.7756,-0.4667,-1.3753,0.7082,0.0029,-0.1247,-0.2537,49.25901718,-122.75420065,0.75000000,
1.8830,-0.0051,0.5455,0.7720,-0.4667,-1.3753,0.7082,0.0029,-0.1247,-0.2537,49.25901718,-122.75420065,0.75000000,
1.8840,-0.0051,0.5455,0.7720,-0.4667,-1.3753,0.7082,0.1839,-0.0590,0.0355,49.25901718,-122.75420065,0.75000000,
1.8860,-0.0061,0.5455,0.7698,-0.4667,-1.3753,0.7082,0.1839,-0.0590,0.0355,49.25901718,-122.75420065,0.75000000,
1.8870,-0.0086,0.5465,0.7659,-0.4667,-1.3753,0.7082,0.1839,-0.0590,0.0355,49.25901718,-122.75420065,0.75000000,
1.8910,-0.0125,0.5462,0.7634,-0.4667,-1.3753,0.7082,0.1839,-0.0590,0.0355,49.25901718,-122.75420065,0.75000000,
1.8930,-0.0139,0.5448,0.7639,-0.4667,-1.3753,0.7082,0.1839,-0.0590,0.0355,49.25901718,-122.75420065,0.75000000,
1.8980,-0.0183,0.5438,0.7649,-0.4667,-1.3753,0.7082,0.1839,-0.0590,0.0355,49.25901718,-122.75420065,0.75000000,
1.8990,-0.0183,0.5438,0.7649,-0.8533,-0.6343,0.8612,0.1839,-0.0590,0.0355,49.25901718,-122.75420065,0.75000000,
1.9010,-0.0217,0.5414,0.7644,-0.8533,-0.6343,0.8612,0.1839,-0.0590,0.0355,49.25901718,-122.75420065,0.75000000,
1.9030,-0.0259,0.5387,0.7639,-0.8533,-0.6343,0.8612,0.1839,-0.0590,0.0355,49.25901718,-122.75420065,0.75000000,
1.9040,-0.0293,0.5355,0.7637,-0.8533,-0.6343,0.8612,0.1839,-0.0590,0.0355,49.25901718,-122.75420065,0.75000000,
1.9050,-0.0352,0.5309,0.7629,-0.8533,-0.6343,0.8612,0.1839,-0.0590,0.0355,49.25901718,-122.75420065,0.75000000,
1.9090,-0.0391,0.5255,0.7612,-0.8533,-0.6343,0.8612,0.1839,-0.0590,0.0355,49.25901718,-122.75420065,0.75000000,
1.9100,-0.0425,0.5213,0.7588,-0.8533,-0.6343,0.8612,0.1839,-0.0590,0.0355,49.25901718,-122.75420065,0.75000000,
1.9150,-0.0471,0.5182,0.7588,-0.8533,-0.6343,0.8612,0.1839,-0.0590,0.0355,49.25901718,-122.75420065,0.75000000,
1.9170,-0.0530,0.5138,0.7563,-0.8533,-0.6343,0.8612,0.1839,-0.0590,0.0355,49.25901718,-122.75420065,0.75000000,
1.9190,-0.0581,0.5089,0.7556,-0.8533,-0.6343,0.8612,0.1839,-0.0590,0.0355,49.25901718,-122.75420065,0.75000000,
1.9210,-0.0623,0.5057,0.7556,-0.8533,-0.6343,0.8612,0.1839,-0.0590,0.0355,49.25901718,-122.75420065,0.75000000,
1.9230,-0.0655,0.5015,0.7566,-0.8533,-0.6343,0.8612,0.1839,-0.0590,0.0355,49.25901718,-122.75420065,0.75000000,
1.9270,-0.0686,0.4989,0.7580,-0.8533,-0.6343,0.8612,0.1839,-0.0590,0.0355,49.25901718,-122.75420065,0.75000000,
1.9310,-0.0691,0.4971,0.7598,-0.8533,-0.6343,0.8612,0.1839,-0.0590,0.0355,49.25901718,-122.75420065,0.75000000,
1.9320,-0.0716,0.4935,0.7646,-0.8533,-0.6343,0.8612,0.1839,-0.0590,0.0355,49.25901718,-122.75420065,0.75000000,
1.9340,-0.0723,0.4915,0.7678,-0.8533,-0.6343,0.8612,0.1839,-0.0590,0.0355,49.25901718,-122.75420065,0.75000000,
1.9360,-0.0740,0.4903,0.7683,-0.8533,-0.6343,0.8612,0.1839,-0.0590,0.0355,49.25901718,-122.75420065,0.75000000,
1.9390,-0.0752,0.4896,0.7690,-0.8533,-0.6343,0.8612,0.1839,-0.0590,0.0355,49.25901718,-122.75420065,0.75000000,
1.9410,-0.0770,0.4886,0.7686,-0.8533,-0.6343,0.8612,0.1839,-0.0590,0.0355,49.25901718,-122.75420065,0.75000000,
1.9440,-0.0787,0.4883,0.7700,-0.8533,-0.6343,0.8612,0.1839,-0.0590,0.0355,49.25901718,-122.75420065,0.75000000,
1.9480,-0.0794,0.4896,0.7715,-0.8533,-0.6343,0.8612,0.1839,-0.0590,0.0355,49.25901718,-122.75420065,0.75000000,
1.9500,-0.0806,0.4886,0.7717,-0.8533,-0.6343,0.8612,0.1839,-0.0590,0.0355,49.25901718,-122.75420065,0.75000000,
1.9510,-0.0809,0.4861,0.7725,-0.8533,-0.6343,0.8612,0.1839,-0.0590,0.0355,49.25901718,-122.75420065,0.75000000,
1.9550,-0.0809,0.4861,0.7725,-0.8533,-0.6343,0.8612,0.0021,0.1008,-0.0299,49.25901718,-122.75420065,0.75000000,
1.9570,-0.0806,0.4837,0.7737,-0.8533,-0.6343,0.8612,0.0021,0.1008,-0.0299,49.25901718,-122.75420065,0.75000000,
1.9590,-0.0809,0.4813,0.7730,-0.8533,-0.6343,0.8612,0.0021,0.1008,-0.0299,49.25901718,-122.75420065,0.75000000,
1.9600,-0.0821,0.4808,0.7734,-0.8533,-0.6343,0.8612,0.0021,0.1008,-0.0299,49.25901718,-122.75420065,0.75000000,
1.9620,-0.0833,0.4786,0.7737,-0.8533,-0.6343,0.8612,0.0021,0.1008,-0.0299,49.25901718,-122.75420065,0.75000000,
1.9660,-0.0835,0.4791,0.7722,-0.8533,-0.6343,0.8612,0.0021,0.1008,-0.0299,49.25901718,-122.75420065,0.75000000,
1.9680,-0.0848,0.4810,0.7732,-0.8533,-0.6343,0.8612,0.0021,0.1008,-0.0299,49.25901718,-122.75420065,0.75000000,
1.9690,-0.0848,0.4810,0.7732,-0.1340,-0.3589,-0.0186,0.0021,0.1008,-0.0299,49.25901718,-122.75420065,0.75000000,
1.9700,-0.0843,0.4818,0.7749,-0.1340,-0.3589,-0.0186,0.0021,0.1008,-0.0299,49.25901718,-122.75420065,0.75000000,
1.9720,-0.0835,0.4822,0.7783,-0.1340,-0.3589,-0.0186,0.0021,0.1008,-0.0299,49.25901718,-122.75420065,0.75000000,
1.9750,-0.0814,0.4842,0.7817,-0.1340,-0.3589,-0.0186,0.0021,0.1008,-0.0299,49.25901718,-122.75420065,0.75000000,
1.9770,-0.0792,0.4852,0.7866,-0.1340,-0.3589,-0.0186,0.0021,0.1008,-0.0299,49.25901718,-122.75420065,0.75000000,
1.9810,-0.0755,0.4871,0.7932,-0.1340,-0.3589,-0.0186,0.0021,0.1008,-0.0299,49.25901718,-122.75420065,0.75000000,
1.9830,-0.0718,0.4905,0.7974,-0.1340,-0.3589,-0.0186,0.0021,0.1008,-0.0299,49.25901718,-122.75420065,0.75000000,
1.9840,-0.0674,0.4935,0.8037,-0.1340,-0.3589,-0.0186,0.0021,0.1008,-0.0299,49.25901718,-122.75420065,0.75000000,
1.9860,-0.0630,0.4976,0.8106,-0.1340,-0.3589,-0.0186,0.0021,0.1008,-0.0299,49.25901718,-122.75420065,0.75000000,
1.9900,-0.0562,0.5030,0.8152,-0.1340,-0.3589,-0.0186,0.0021,0.1008,-0.0299,49.25901718,-122.75420065,0.75000000,
1.9920,-0.0513,0.5079,0.8213,-0.1340,-0.3589,-0.0186,0.0021,0.1008,-0.0299,49.25901718,-122.75420065,0.75000000,
1.9940,-0.0476,0.5140,0.8260,-0.1340,-0.3589,-0.0186,0.0021,0.1008,-0.0299,49.25901718,-122.75420065,0.75000000,
1.9970,-0.0420,0.5199,0.8323,-0.1340,-0.3589,-0.0186,0.0021,0.1008,-0.0299,49.25901718,-122.75420065,0.75000000,
1.9990,-0.0354,0.5252,0.8396,-0.1340,-0.3589,-0.0186,0.0021,0.1008,-0.0299,49.25901718,-122.75420065,0.75000000,
2.0020,-0.0303,0.5316,0.8489,-0.1340,-0.3589,-0.0186,0.0021,0.1008,-0.0299,49.25901718,-122.75420065,0.75000000,
2.0050,-0.0269,0.5365,0.8580,-0.1340,-0.3589,-0.0186,0.0021,0.1008,-0.0299,49.25901718,-122.75420065,0.75000000,
2.0080,-0.0235,0.5394,0.8680,-0.1340,-0.3589,-0.0186,0.0021,0.1008,-0.0299,49.25901718,-122.75420065,0.75000000,
2.0090,-0.0193,0.5450,0.8758,-0.1340,-0.3589,-0.0186,0.0021,0.1008,-0.0299,49.25901718,-122.75420065,0.75000000,
2.0120,-0.0144,0.5475,0.8831,-0.1340,-0.3589,-0.0186,0.0021,0.1008,-0.0299,49.25901718,-122.75420065,0.75000000,
2.0160,-0.0093,0.5502,0.8875,-0.1340,-0.3589,-0.0186,0.0021,0.1008,-0.0299,49.25901718,-122.75420065,0.75000000,
2.0180,-0.0034,0.5533,0.8909,-0.1340,-0.3589,-0.0186,0.0021,0.1008,-0.0299,49.25901718,-122.75420065,0.75000000,
2.0190,0.0005,0.5568,0.8978,-0.1340,-0.3589,-0.0186,0.0021,0.1008,-0.0299,49.25901718,-122.75420065,0.75000000,
2.0230,0.0024,0.5592,0.9058,-0.1340,-0.3589,-0.0186,0.0021,0.1008,-0.0299,49.25901718,-122.75420065,0.75000000,
2.0260,0.0029,0.5643,0.9132,-0.1340,-0.3589,-0.0186,0.0021,0.1008,-0.0299,49.25901718,-122.75420065,0.75000000,
2.0280,0.0029,0.5643,0.9132,-0.1340,-0.3589,-0.0186,-0.1500,-0.1581,0.0082,49.25901718,-122.75420065,0.75000000,
2.0290,0.0064,0.5690,0.9220,-0.1340,-0.3589,-0.0186,-0.1500,-0.1581,0.0082,49.25901718,-122.75420065,0.75000000,
2.0310,0.0086,0.5717,0.9305,-0.1340,-0.3589,-0.0186,-0.1500,-0.1581,0.0082,49.25901718,-122.75420065,0.75000000,
2.0360,0.0098,0.5736,0.9405,-0.1340,-0.3589,-0.0186,-0.1500,-0.1581,0.0082,49.25901718,-122.75420065,0.75000000,
2.0380,0.0107,0.5763,0.9491,-0.1340,-0.3589,-0.0186,-0.1500,-0.1581,0.0082,49.25901718,-122.75420065,0.75000000,
2.0390,0.0112,0.5758,0.9564,-0.1340,-0.3589,-0.0186,-0.1500,-0.1581,0.0082,49.25901718,-122.75420065,0.75000000,
2.0400,0.0112,0.5758,0.9564,-0.5193,-0.3776,-0.7367,-0.1500,-0.1581,0.0082,49.25901718,-122.75420065,0.75000000,
2.0420,0.0134,0.5756,0.9603,-0.5193,-0.3776,-0.7367,-0.1500,-0.1581,0.0082,49.25901718,-122.75420065,0.75000000,
2.0430,0.0134,0.5748,0.9596,-0.5193,-0.3776,-0.7367,-0.1500,-0.1581,0.0082,49.25901718,-122.75420065,0.75000000,
2.0450,0.0103,0.5743,0.9591,-0.5193,-0.3776,-0.7367,-0.1500,-0.1581,0.0082,49.25901718,-122.75420065,0.75000000,
2.0480,0.0071,0.5756,0.9593,-0.5193,-0.3776,-0.7367,-0.1500,-0.1581,0.0082,49.25901718,-122.75420065,0.75000000,
2.0500,0.0066,0.5768,0.9603,-0.5193,-0.3776,-0.7367,-0.1500,-0.1581,0.0082,49.25901718,-122.75420065,0.75000000,
2.0530,0.0034,0.5802,0.9581,-0.5193,-0.3776,-0.7367,-0.1500,-0.1581,0.0082,49.25901718,-122.75420065,0.75000000,
2.0560,0.0022,0.5814,0.9550,-0.5193,-0.3776,-0.7367,-0.1500,-0.1581,0.0082,49.25901718,-122.75420065,0.75000000,
2.0580,-0.0010,0.5846,0.9540,-0.5193,-0.3776,-0.7367,-0.1500,-0.1581,0.0082,49.25901718,-122.75420065,0.75000000,
2.0600,-0.0017,0.5883,0.9542,-0.5193,-0.3776,-0.7367,-0.1500,-0.1581,0.0082,49.25901718,-122.75420065,0.75000000,
2.0640,-0.0005,0.5936,0.9559,-0.5193,-0.3776,-0.7367,-0.1500,-0.1581,0.0082,49.25901718,-122.75420065,0.75000000,
2.0660,0.0012,0.5980,0.9550,-0.5193,-0.3776,-0.7367,-0.1500,-0.1581,0.0082,49.25901718,-122.75420065,0.75000000,
2.0680,0.0024,0.6022,0.9528,-0.5193,-0.3776,-0.7367,-0.1500,-0.1581,0.0082,49.25901718,-122.75420065,0.75000000,
2.0710,0.0046,0.6061,0.9510,-0.5193,-0.3776,-0.7367,-0.1500,-0.1581,0.0082,49.25901718,-122.75420065,0.75000000,
2.0730,0.0046,0.6105,0.9486,-0.5193,-0.3776,-0.7367,-0.1500,-0.1581,0.0082,49.25901718,-122.75420065,0.75000000,
2.0750,0.0034,0.6154,0.9469,-0.5193,-0.3776,-0.7367,-0.1500,-0.1581,0.0082,49.25901718,-122.75420065,0.75000000,
2.0790,0.0061,0.6176,0.9435,-0.5193,-0.3776,-0.7367,-0.1500,-0.1581,0.0082,49.25901718,-122.75420065,0.75000000,
2.0830,0.0076,0.6215,0.9383,-0.5193,-0.3776,-0.7367,-0.1500,-0.1581,0.0082,49.25901718,-122.75420065,0.75000000,
2.0840,0.0107,0.6286,0.9315,-0.5193,-0.3776,-0.7367,-0.1500,-0.1581,0.0082,49.25901718,-122.75420065,0.75000000,
2.0860,0.0129,0.6337,0.9244,-0.5193,-0.3776,-0.7367,-0.1500,-0.1581,0.0082,49.25901718,-122.75420065,0.75000000,
2.0890,0.0154,0.6364,0.9168,-0.5193,-0.3776,-0.7367,-0.1500,-0.1581,0.0082,49.25901718,-122.75420065,0.75000000,
2.0910,0.0171,0.6396,0.9095,-0.5193,-0.3776,-0.7367,-0.1500,-0.1581,0.0082,49.25901718,-122.75420065,0.75000000,
2.0930,0.0183,0.6440,0.9039,-0.5193,-0.3776,-0.7367,-0.1500,-0.1581,0.0082,49.25901718,-122.75420065,0.75000000,
2.0970,0.0183,0.6440,0.9039,-0.5193,-0.3776,-0.7367,-0.1594,-0.0609,-0.0229,49.25901718,-122.75420065,0.75000000,
2.0990,0.0191,0.6486,0.8985,-0.5193,-0.3776,-0.7367,-0.1594,-0.0609,-0.0229,49.25901718,-122.75420065,0.75000000,
2.1000,0.0217,0.6532,0.8927,-0.5193,-0.3776,-0.7367,-0.1594,-0.0609,-0.0229,49.25901718,-122.75420065,0.75000000,
2.1040,0.0239,0.6564,0.8856,-0.5193,-0.3776,-0.7367,-0.1594,-0.0609,-0.0229,49.25901718,-122.75420065,0.75000000,
2.1050,0.0288,0.6613,0.8807,-0.5193,-0.3776,-0.7367,-0.1594,-0.0609,-0.0229,49.25901718,-122.75420065,0.75000000,
2.1070,0.0337,0.6652,0.8782,-0.5193,-0.3776,-0.7367,-0.1594,-0.0609,-0.0229,49.25901718,-122.75420065,0.75000000,
2.1090,0.0366,0.6664,0.8763,-0.5193,-0.3776,-0.7367,-0.1594,-0.0609,-0.0229,49.25901718,-122.75420065,0.75000000,
2.1100,0.0366,0.6664,0.8763,-0.2157,-0.0229,0.1035,-0.1594,-0.0609,-0.0229,49.25901718,-122.75420065,0.75000000,
2.1110,0.0386,0.6664,0.8765,-0.2157,-0.0229,0.1035,-0.1594,-0.0609,-0.0229,49.25901718,-122.75420065,0.75000000,
2.1160,0.0396,0.6655,0.8787,-0.2157,-0.0229,0.1035,-0.1594,-0.0609,-0.0229,49.25901718,-122.75420065,0.75000000,
2.1190,0.0420,0.6642,0.8826,-0.2157,-0.0229,0.1035,-0.1594,-0.0609,-0.0229,49.25901718,-122.75420065,0.75000000,
2.1200,0.0447,0.6625,0.8870,-0.2157,-0.0229,0.1035,-0.1594,-0.0609,-0.0229,49.25901718,-122.75420065,0.75000000,
2.1220,0.0481,0.6574,0.8914,-0.2157,-0.0229,0.1035,-0.1594,-0.0609,-0.0229,49.25901718,-122.75420065,0.75000000,
2.1230,0.0503,0.6545,0.8949,-0.2157,-0.0229,0.1035,-0.1594,-0.0609,-0.0229,49.25901718,-122.75420065,0.75000000,
2.1260,0.0547,0.6506,0.8995,-0.2157,-0.0229,0.1035,-0.1594,-0.0609,-0.0229,49.25901718,-122.75420065,0.75000000,
2.1290,0.0547,0.6452,0.9061,-0.2157,-0.0229,0.1035,-0.1594,-0.0609,-0.0229,49.25901718,-122.75420065,0.75000000,
2.1310,0.0537,0.6369,0.9164,-0.2157,-0.0229,0.1035,-0.1594,-0.0609,-0.0229,49.25901718,-122.75420065,0.75000000,
2.1350,0.0533,0.6283,0.9259,-0.2157,-0.0229,0.1035,-0.1594,-0.0609,-0.0229,49.25901718,-122.75420065,0.75000000,
2.1370,0.0547,0.6208,0.9361,-0.2157,-0.0229,0.1035,-0.1594,-0.0609,-0.0229,49.25901718,-122.75420065,0.75000000,
2.1390,0.0572,0.6100,0.9488,-0.2157,-0.0229,0.1035,-0.1594,-0.0609,-0.0229,49.25901718,-122.75420065,0.75000000,
2.1410,0.0586,0.6002,0.9608,-0.2157,-0.0229,0.1035,-0.1594,-0.0609,-0.0229,49.25901718,-122.75420065,0.75000000,
2.1440,0.0601,0.5914,0.9784,-0.2157,-0.0229,0.1035,-0.1594,-0.0609,-0.0229,49.25901718,-122.75420065,0.75000000,
2.1470,0.0640,0.5839,0.9957,-0.2157,-0.0229,0.1035,-0.1594,-0.0609,-0.0229,49.25901718,-122.75420065,0.75000000,
2.1490,0.0679,0.5729,1.0146,-0.2157,-0.0229,0.1035,-0.1594,-0.0609,-0.0229,49.25901718,-122.75420065,0.75000000,
2.1520,0.0723,0.5631,1.0307,-0.2157,-0.0229,0.1035,-0.1594,-0.0609,-0.0229,49.25901718,-122.75420065,0.75000000,
2.1530,0.0755,0.5550,1.0441,-0.2157,-0.0229,0.1035,-0.1594,-0.0609,-0.0229,49.25901718,-122.75420065,0.75000000,
2.1570,0.0760,0.5448,1.0541,-0.2157,-0.0229,0.1035,-0.1594,-0.0609,-0.0229,49.25901718,-122.75420065,0.75000000,
2.1600,0.0779,0.5353,1.0595,-0.2157,-0.0229,0.1035,-0.1594,-0.0609,-0.0229,49.25901718,-122.75420065,0.75000000,
2.1610,0.0772,0.5235,1.0627,-0.2157,-0.0229,0.1035,-0.1594,-0.0609,-0.0229,49.25901718,-122.75420065,0.75000000,
2.1640,0.0748,0.5133,1.0676,-0.2157,-0.0229,0.1035,-0.1594,-0.0609,-0.0229,49.25901718,-122.75420065,0.75000000,
2.1670,0.0686,0.5042,1.0732,-0.2157,-0.0229,0.1035,-0.1594,-0.0609,-0.0229,49.25901718,-122.75420065,0.75000000,
2.1690,0.0686,0.5042,1.0732,-0.2157,-0.0229,0.1035,-0.1466,-0.4027,-0.3280,49.25901718,-122.75420065,0.75000000,
2.1700,0.0650,0.4954,1.0769,-0.2157,-0.0229,0.1035,-0.1466,-0.4027,-0.3280,49.25901718,-122.75420065,0.75000000,
2.1720,0.0726,0.4891,1.0715,-0.2157,-0.0229,0.1035,-0.1466,-0.4027,-0.3280,49.25901718,-122.75420065,0.75000000,
2.1740,0.0762,0.4842,1.0637,-0.2157,-0.0229,0.1035,-0.1466,-0.4027,-0.3280,49.25901718,-122.75420065,0.75000000,
2.1770,0.0748,0.4808,1.0480,-0.2157,-0.0229,0.1035,-0.1466,-0.4027,-0.3280,49.25901718,-122.75420065,0.75000000,
2.1810,0.0696,0.4766,1.0336,-0.2157,-0.0229,0.1035,-0.1466,-0.4027,-0.3280,49.25901718,-122.75420065,0.75000000,
2.1820,0.0696,0.4766,1.0336,0.1146,0.8658,0.7659,-0.1466,-0.4027,-0.3280,49.25901718,-122.75420065,0.75000000,
2.1840,0.0635,0.4730,1.0246,0.1146,0.8658,0.7659,-0.1466,-0.4027,-0.3280,49.25901718,-122.75420065,0.75000000,
2.1850,0.0523,0.4727,1.0158,0.1146,0.8658,0.7659,-0.1466,-0.4027,-0.3280,49.25901718,-122.75420065,0.75000000,
2.1880,0.0425,0.4722,1.0089,0.1146,0.8658,0.7659,-0.1466,-0.4027,-0.3280,49.25901718,-122.75420065,0.75000000,
2.1890,0.0352,0.4722,1.0026,0.1146,0.8658,0.7659,-0.1466,-0.4027,-0.3280,49.25901718,-122.75420065,0.75000000,
2.1920,0.0318,0.4737,0.9945,0.1146,0.8658,0.7659,-0.1466,-0.4027,-0.3280,49.25901718,-122.75420065,0.75000000,
2.1940,0.0303,0.4739,0.9862,0.1146,0.8658,0.7659,-0.1466,-0.4027,-0.3280,49.25901718,-122.75420065,0.75000000,
2.1970,0.0305,0.4727,0.9757,0.1146,0.8658,0.7659,-0.1466,-0.4027,-0.3280,49.25901718,-122.75420065,0.75000000,
2.2000,0.0310,0.4739,0.9642,0.1146,0.8658,0.7659,-0.1466,-0.4027,-0.3280,49.25901718,-122.75420065,0.75000000,
2.2020,0.0354,0.4756,0.9503,0.1146,0.8658,0.7659,-0.1466,-0.4027,-0.3280,49.25901718,-122.75420065,0.75000000,
2.2040,0.0371,0.4793,0.9347,0.1146,0.8658,0.7659,-0.1466,-0.4027,-0.3280,49.25901718,-122.75420065,0.75000000,
2.2080,0.0403,0.4818,0.9161,0.1146,0.8658,0.7659,-0.1466,-0.4027,-0.3280,49.25901718,-122.75420065,0.75000000,
2.2090,0.0425,0.4852,0.8995,0.1146,0.8658,0.7659,-0.1466,-0.4027,-0.3280,49.25901718,-122.75420065,0.75000000,
2.2150,0.0457,0.4879,0.8831,0.1146,0.8658,0.7659,-0.1466,-0.4027,-0.3280,49.25901718,-122.75420065,0.75000000,
2.2160,0.0457,0.4915,0.8670,0.1146,0.8658,0.7659,-0.1466,-0.4027,-0.3280,49.25901718,-122.75420065,0.75000000,
2.2170,0.0464,0.4947,0.8514,0.1146,0.8658,0.7659,-0.1466,-0.4027,-0.3280,49.25901718,-122.75420065,0.75000000,
2.2200,0.0462,0.4986,0.8370,0.1146,0.8658,0.7659,-0.1466,-0.4027,-0.3280,49.25901718,-122.75420065,0.75000000,
2.2250,0.0450,0.5011,0.8203,0.1146,0.8658,0.7659,-0.1466,-0.4027,-0.3280,49.25901718,-122.75420065,0.75000000,
2.2260,0.0408,0.5035,0.8042,0.1146,0.8658,0.7659,-0.1466,-0.4027,-0.3280,49.25901718,-122.75420065,0.75000000,
2.2280,0.0386,0.5047,0.7886,0.1146,0.8658,0.7659,-0.1466,-0.4027,-0.3280,49.25901718,-122.75420065,0.75000000,
2.2320,0.0369,0.5067,0.7732,0.1146,0.8658,0.7659,-0.1466,-0.4027,-0.3280,49.25901718,-122.75420065,0.75000000,
2.2330,0.0344,0.5089,0.7590,0.1146,0.8658,0.7659,-0.1466,-0.4027,-0.3280,49.25901718,-122.75420065,0.75000000,
2.2350,0.0320,0.5091,0.7488,0.1146,0.8658,0.7659,-0.1466,-0.4027,-0.3280,49.25901718,-122.75420065,0.75000000,
2.2380,0.0303,0.5096,0.7434,0.1146,0.8658,0.7659,-0.1466,-0.4027,-0.3280,49.25901718,-122.75420065,0.75000000,
2.2390,0.0303,0.5096,0.7434,0.1146,0.8658,0.7659,0.1434,0.0078,-0.3282,49.25901718,-122.75420065,0.75000000,
2.2400,0.0271,0.5106,0.7409,0.1146,0.8658,0.7659,0.1434,0.0078,-0.3282,49.25901718,-122.75420065,0.75000000,
2.2430,0.0261,0.5111,0.7414,0.1146,0.8658,0.7659,0.1434,0.0078,-0.3282,49.25901718,-122.75420065,0.75000000,
2.2480,0.0259,0.5113,0.7429,0.1146,0.8658,0.7659,0.1434,0.0078,-0.3282,49.25901718,-122.75420065,0.75000000,
2.2510,0.0230,0.5094,0.7453,0.1146,0.8658,0.7659,0.1434,0.0078,-0.3282,49.25901718,-122.75420065,0.75000000,
2.2520,0.0193,0.5074,0.7480,0.1146,0.8658,0.7659,0.1434,0.0078,-0.3282,49.25901718,-122.75420065,0.75000000,
2.2520,0.0193,0.5074,0.7480,0.7193,0.4178,1.2691,0.1434,0.0078,-0.3282,49.25901718,-122.75420065,0.75000000,
2.2530,0.0181,0.5047,0.7524,0.7193,0.4178,1.2691,0.1434,0.0078,-0.3282,49.25901718,-122.75420065,0.75000000,
2.2560,0.0154,0.5008,0.7546,0.7193,0.4178,1.2691,0.1434,0.0078,-0.3282,49.25901718,-122.75420065,0.75000000,
2.2580,0.0129,0.4984,0.7566,0.7193,0.4178,1.2691,0.1434,0.0078,-0.3282,49.25901718,-122.75420065,0.75000000,
2.2620,0.0086,0.4974,0.7590,0.7193,0.4178,1.2691,0.1434,0.0078,-0.3282,49.25901718,-122.75420065,0.75000000,
2.2630,0.0027,0.4940,0.7620,0.7193,0.4178,1.2691,0.1434,0.0078,-0.3282,49.25901718,-122.75420065,0.75000000,
2.2700,-0.0020,0.4913,0.7656,0.7193,0.4178,1.2691,0.1434,0.0078,-0.3282,49.25901718,-122.75420065,0.75000000,
2.2720,-0.0083,0.4905,0.7673,0.7193,0.4178,1.2691,0.1434,0.0078,-0.3282,49.25901718,-122.75420065,0.75000000,
2.2730,-0.0117,0.4886,0.7671,0.7193,0.4178,1.2691,0.1434,0.0078,-0.3282,49.25901718,-122.75420065,0.75000000,
2.2740,-0.0171,0.4861,0.7659,0.7193,0.4178,1.2691,0.1434,0.0078,-0.3282,49.25901718,-122.75420065,0.75000000,
2.2770,-0.0232,0.4827,0.7612,0.7193,0.4178,1.2691,0.1434,0.0078,-0.3282,49.25901718,-122.75420065,0.75000000,
2.2780,-0.0300,0.4800,0.7566,0.7193,0.4178,1.2691,0.1434,0.0078,-0.3282,49.25901718,-122.75420065,0.75000000,
2.2830,-0.0369,0.4803,0.7500,0.7193,0.4178,1.2691,0.1434,0.0078,-0.3282,49.25901718,-122.75420065,0.75000000,
2.2850,-0.0423,0.4808,0.7424,0.7193,0.4178,1.2691,0.1434,0.0078,-0.3282,49.25901718,-122.75420065,0.75000000,
2.2870,-0.0476,0.4827,0.7346,0.7193,0.4178,1.2691,0.1434,0.0078,-0.3282,49.25901718,-122.75420065,0.75000000,
2.2900,-0.0511,0.4837,0.7238,0.7193,0.4178,1.2691,0.1434,0.0078,-0.3282,49.25901718,-122.75420065,0.75000000,
2.2910,-0.0542,0.4879,0.7141,0.7193,0.4178,1.2691,0.1434,0.0078,-0.3282,49.25901718,-122.75420065,0.75000000,
2.2940,-0.0584,0.4905,0.7065,0.7193,0.4178,1.2691,0.1434,0.0078,-0.3282,49.25901718,-122.75420065,0.75000000,
2.2980,-0.0613,0.4920,0.7004,0.7193,0.4178,1.2691,0.1434,0.0078,-0.3282,49.25901718,-122.75420065,0.75000000,
2.2990,-0.0640,0.4964,0.6953,0.7193,0.4178,1.2691,0.1434,0.0078,-0.3282,49.25901718,-122.75420065,0.75000000,
2.3020,-0.0662,0.5001,0.6904,0.7193,0.4178,1.2691,0.1434,0.0078,-0.3282,49.25901718,-122.75420065,0.75000000,
2.3040,-0.0664,0.5035,0.6877,0.7193,0.4178,1.2691,0.1434,0.0078,-0.3282,49.25901718,-122.75420065,0.75000000,
2.3070,-0.0662,0.5050,0.6850,0.7193,0.4178,1.2691,0.1434,0.0078,-0.3282,49.25901718,-122.75420065,0.75000000,
2.3100,-0.0662,0.5050,0.6850,0.7193,0.4178,1.2691,0.1221,0.1811,-0.1712,49.25901718,-122.75420065,0.75000000,
2.3110,-0.0679,0.5081,0.6850,0.7193,0.4178,1.2691,0.1221,0.1811,-0.1712,49.25901718,-122.75420065,0.75000000,
2.3110,-0.0679,0.5103,0.6833,0.7193,0.4178,1.2691,0.1221,0.1811,-0.1712,49.25901718,-122.75420065,0.75000000,
2.3150,-0.0667,0.5118,0.6816,0.7193,0.4178,1.2691,0.1221,0.1811,-0.1712,49.25901718,-122.75420065,0.75000000,
2.3170,-0.0691,0.5120,0.6811,0.7193,0.4178,1.2691,0.1221,0.1811,-0.1712,49.25901718,-122.75420065,0.75000000,
2.3190,-0.0691,0.5142,0.6794,0.7193,0.4178,1.2691,0.1221,0.1811,-0.1712,49.25901718,-122.75420065,0.75000000,
2.3220,-0.0704,0.5145,0.6789,0.7193,0.4178,1.2691,0.1221,0.1811,-0.1712,49.25901718,-122.75420065,0.75000000,
2.3230,-0.0704,0.5145,0.6789,0.6279,-0.4984,0.1793,0.1221,0.1811,-0.1712,49.25901718,-122.75420065,0.75000000,
2.3240,-0.0706,0.5169,0.6791,0.6279,-0.4984,0.1793,0.1221,0.1811,-0.1712,49.25901718,-122.75420065,0.75000000,
2.3280,-0.0679,0.5189,0.6809,0.6279,-0.4984,0.1793,0.1221,0.1811,-0.1712,49.25901718,-122.75420065,0.75000000,
2.3330,-0.0645,0.5189,0.6850,0.6279,-0.4984,0.1793,0.1221,0.1811,-0.1712,49.25901718,-122.75420065,0.75000000,
2.3350,-0.0613,0.5230,0.6874,0.6279,-0.4984,0.1793,0.1221,0.1811,-0.1712,49.25901718,-122.75420065,0.75000000,
2.3350,-0.0586,0.5250,0.6914,0.6279,-0.4984,0.1793,0.1221,0.1811,-0.1712,49.25901718,-122.75420065,0.75000000,
2.3370,-0.0574,0.5252,0.6926,0.6279,-0.4984,0.1793,0.1221,0.1811,-0.1712,49.25901718,-122.75420065,0.75000000,
2.3390,-0.0557,0.5252,0.6950,0.6279,-0.4984,0.1793,0.1221,0.1811,-0.1712,49.25901718,-122.75420065,0.75000000,
2.3430,-0.0535,0.5277,0.6997,0.6279,-0.4984,0.1793,0.1221,0.1811,-0.1712,49.25901718,-122.75420065,0.75000000,
2.3450,-0.0520,0.5274,0.7019,0.6279,-0.4984,0.1793,0.1221,0.1811,-0.1712,49.25901718,-122.75420065,0.75000000,
2.3470,-0.0511,0.5267,0.7053,0.6279,-0.4984,0.1793,0.1221,0.1811,-0.1712,49.25901718,-122.75420065,0.75000000,
2.3500,-0.0513,0.5282,0.7092,0.6279,-0.4984,0.1793,0.1221,0.1811,-0.1712,49.25901718,-122.75420065,0.75000000,
2.3530,-0.0523,0.5262,0.7129,0.6279,-0.4984,0.1793,0.1221,0.1811,-0.1712,49.25901718,-122.75420065,0.75000000,
2.3550,-0.0513,0.5260,0.7168,0.6279,-0.4984,0.1793,0.1221,0.1811,-0.1712,49.25901718,-122.75420065,0.75000000,
2.3590,-0.0503,0.5245,0.7221,0.6279,-0.4984,0.1793,0.1221,0.1811,-0.1712,49.25901718,-122.75420065,0.75000000,
2.3600,-0.0518,0.5223,0.7275,0.6279,-0.4984,0.1793,0.1221,0.1811,-0.1712,49.25901718,-122.75420065,0.75000000,
2.3650,-0.0530,0.5196,0.7331,0.6279,-0.4984,0.1793,0.1221,0.1811,-0.1712,49.25901718,-122.75420065,0.75000000,
2.3670,-0.0545,0.5177,0.7383,0.6279,-0.4984,0.1793,0.1221,0.1811,-0.1712,49.25901718,-122.75420065,0.75000000,
2.3680,-0.0569,0.5167,0.7431,0.6279,-0.4984,0.1793,0.1221,0.1811,-0.1712,49.25901718,-122.75420065,0.75000000,
2.3700,-0.0586,0.5138,0.7490,0.6279,-0.4984,0.1793,0.1221,0.1811,-0.1712,49.25901718,-122.75420065,0.75000000,
2.3730,-0.0608,0.5120,0.7541,0.6279,-0.4984,0.1793,0.1221,0.1811,-0.1712,49.25901718,-122.75420065,0.75000000,
2.3750,-0.0630,0.5111,0.7563,0.6279,-0.4984,0.1793,0.1221,0.1811,-0.1712,49.25901718,-122.75420065,0.75000000,
2.3780,-0.0647,0.5098,0.7593,0.6279,-0.4984,0.1793,0.1221,0.1811,-0.1712,49.25901718,-122.75420065,0.75000000,
2.3820,-0.0679,0.5069,0.7624,0.6279,-0.4984,0.1793,0.1221,0.1811,-0.1712,49.25901718,-122.75420065,0.75000000,
2.3840,-0.0679,0.5069,0.7624,0.6279,-0.4984,0.1793,-0.0198,0.0142,-0.0996,49.25901718,-122.75420065,0.75000000,
2.3860,-0.0686,0.5074,0.7654,0.6279,-0.4984,0.1793,-0.0198,0.0142,-0.0996,49.25901718,-122.75420065,0.75000000,
2.3870,-0.0694,0.5067,0.7678,0.6279,-0.4984,0.1793,-0.0198,0.0142,-0.0996,49.25901718,-122.75420065,0.75000000,
2.3890,-0.0721,0.5054,0.7725,0.6279,-0.4984,0.1793,-0.0198,0.0142,-0.0996,49.25901718,-122.75420065,0.75000000,
2.3910,-0.0733,0.5035,0.7781,0.6279,-0.4984,0.1793,-0.0198,0.0142,-0.0996,49.25901718,-122.75420065,0.75000000,
2.3940,-0.0735,0.5050,0.7842,0.6279,-0.4984,0.1793,-0.0198,0.0142,-0.0996,49.25901718,-122.75420065,0.75000000,
2.3960,-0.0735,0.5050,0.7842,-0.0787,-0.4059,-1.1988,-0.0198,0.0142,-0.0996,49.25901718,-122.75420065,0.75000000,
2.3970,-0.0738,0.5052,0.7905,-0.0787,-0.4059,-1.1988,-0.0198,0.0142,-0.0996,49.25901718,-122.75420065,0.75000000,
2.3980,-0.0728,0.5064,0.7954,-0.0787,-0.4059,-1.1988,-0.0198,0.0142,-0.0996,49.25901718,-122.75420065,0.75000000,
2.4030,-0.0730,0.5084,0.8015,-0.0787,-0.4059,-1.1988,-0.0198,0.0142,-0.0996,49.25901718,-122.75420065,0.75000000,
2.4040,-0.0738,0.5081,0.8069,-0.0787,-0.4059,-1.1988,-0.0198,0.0142,-0.0996,49.25901718,-122.75420065,0.75000000,
2.4050,-0.0740,0.5079,0.8123,-0.0787,-0.4059,-1.1988,-0.0198,0.0142,-0.0996,49.25901718,-122.75420065,0.75000000,
2.4080,-0.0718,0.5081,0.8189,-0.0787,-0.4059,-1.1988,-0.0198,0.0142,-0.0996,49.25901718,-122.75420065,0.75000000,
2.4100,-0.0721,0.5101,0.8267,-0.0787,-0.4059,-1.1988,-0.0198,0.0142,-0.0996,49.25901718,-122.75420065,0.75000000,
2.4140,-0.0699,0.5120,0.8338,-0.0787,-0.4059,-1.1988,-0.0198,0.0142,-0.0996,49.25901718,-122.75420065,0.75000000,
2.4170,-0.0677,0.5125,0.8411,-0.0787,-0.4059,-1.1988,-0.0198,0.0142,-0.0996,49.25901718,-122.75420065,0.75000000,
2.4190,-0.0664,0.5133,0.8509,-0.0787,-0.4059,-1.1988,-0.0198,0.0142,-0.0996,49.25901718,-122.75420065,0.75000000,
2.4210,-0.0635,0.5145,0.8585,-0.0787,-0.4059,-1.1988,-0.0198,0.0142,-0.0996,49.25901718,-122.75420065,0.75000000,
2.4230,-0.0618,0.5140,0.8653,-0.0787,-0.4059,-1.1988,-0.0198,0.0142,-0.0996,49.25901718,-122.75420065,0.75000000,
2.4270,-0.0581,0.5167,0.8709,-0.0787,-0.4059,-1.1988,-0.0198,0.0142,-0.0996,49.25901718,-122.75420065,0.75000000,
2.4290,-0.0535,0.5191,0.8765,-0.0787,-0.4059,-1.1988,-0.0198,0.0142,-0.0996,49.25901718,-122.75420065,0.75000000,
2.4330,-0.0511,0.5204,0.8809,-0.0787,-0.4059,-1.1988,-0.0198,0.0142,-0.0996,49.25901718,-122.75420065,0.75000000,
2.4340,-0.0493,0.5206,0.8856,-0.0787,-0.4059,-1.1988,-0.0198,0.0142,-0.0996,49.25901718,-122.75420065,0.75000000,
2.4360,-0.0481,0.5221,0.8897,-0.0787,-0.4059,-1.1988,-0.0198,0.0142,-0.0996,49.25901718,-122.75420065,0.75000000,
2.4380,-0.0491,0.5225,0.8927,-0.0787,-0.4059,-1.1988,-0.0198,0.0142,-0.0996,49.25901718,-122.75420065,0.75000000,
2.4420,-0.0471,0.5235,0.8934,-0.0787,-0.4059,-1.1988,-0.0198,0.0142,-0.0996,49.25901718,-122.75420065,0.75000000,
2.4430,-0.0462,0.5257,0.8924,-0.0787,-0.4059,-1.1988,-0.0198,0.0142,-0.0996,49.25901718,-122.75420065,0.75000000,
2.4470,-0.0459,0.5255,0.8934,-0.0787,-0.4059,-1.1988,-0.0198,0.0142,-0.0996,49.25901718,-122.75420065,0.75000000,
2.4510,-0.0481,0.5255,0.8917,-0.0787,-0.4059,-1.1988,-0.0198,0.0142,-0.0996,49.25901718,-122.75420065,0.75000000,
2.4520,-0.0481,0.5255,0.8917,-0.0787,-0.4059,-1.1988,-0.1989,-0.0660,-0.0397,49.25901718,-122.75420065,0.75000000,
2.4540,-0.0496,0.5265,0.8914,-0.0787,-0.4059,-1.1988,-0.1989,-0.0660,-0.0397,49.25901718,-122.75420065,0.75000000,
2.4550,-0.0518,0.5284,0.8900,-0.0787,-0.4059,-1.1988,-0.1989,-0.0660,-0.0397,49.25901718,-122.75420065,0.75000000,
2.4570,-0.0525,0.5260,0.8895,-0.0787,-0.4059,-1.1988,-0.1989,-0.0660,-0.0397,49.25901718,-122.75420065,0.75000000,
2.4580,-0.0533,0.5247,0.8892,-0.0787,-0.4059,-1.1988,-0.1989,-0.0660,-0.0397,49.25901718,-122.75420065,0.75000000,
2.4620,-0.0550,0.5238,0.8902,-0.0787,-0.4059,-1.1988,-0.1989,-0.0660,-0.0397,49.25901718,-122.75420065,0.75000000,
2.4660,-0.0579,0.5216,0.8924,-0.0787,-0.4059,-1.1988,-0.1989,-0.0660,-0.0397,49.25901718,-122.75420065,0.75000000,
2.4680,-0.0579,0.5216,0.8924,-0.3202,-0.0769,-1.2042,-0.1989,-0.0660,-0.0397,49.25901718,-122.75420065,0.75000000,
2.4690,-0.0611,0.5211,0.8931,-0.3202,-0.0769,-1.2042,-0.1989,-0.0660,-0.0397,49.25901718,-122.75420065,0.75000000,
2.4710,-0.0633,0.5218,0.8914,-0.3202,-0.0769,-1.2042,-0.1989,-0.0660,-0.0397,49.25901718,-122.75420065,0.75000000,
2.4730,-0.0621,0.5208,0.8931,-0.3202,-0.0769,-1.2042,-0.1989,-0.0660,-0.0397,49.25901718,-122.75420065,0.75000000,
2.4740,-0.0621,0.5196,0.8934,-0.3202,-0.0769,-1.2042,-0.1989,-0.0660,-0.0397,49.25901718,-122.75420065,0.75000000,
2.4770,-0.0625,0.5194,0.8944,-0.3202,-0.0769,-1.2042,-0.1989,-0.0660,-0.0397,49.25901718,-122.75420065,0.75000000,
2.4820,-0.0611,0.5204,0.8958,-0.3202,-0.0769,-1.2042,-0.1989,-0.0660,-0.0397,49.25901718,-122.75420065,0.75000000,
2.4830,-0.0611,0.5211,0.8968,-0.3202,-0.0769,-1.2042,-0.1989,-0.0660,-0.0397,49.25901718,-122.75420065,0.75000000,
2.4840,-0.0572,0.5225,0.8980,-0.3202,-0.0769,-1.2042,-0.1989,-0.0660,-0.0397,49.25901718,-122.75420065,0.75000000,
2.4870,-0.0545,0.5233,0.9017,-0.3202,-0.0769,-1.2042,-0.1989,-0.0660,-0.0397,49.25901718,-122.75420065,0.75000000,
2.4890,-0.0506,0.5252,0.9032,-0.3202,-0.0769,-1.2042,-0.1989,-0.0660,-0.0397,49.25901718,-122.75420065,0.75000000,
2.4930,-0.0486,0.5282,0.9041,-0.3202,-0.0769,-1.2042,-0.1989,-0.0660,-0.0397,49.25901718,-122.75420065,0.75000000,
2.4940,-0.0450,0.5311,0.9049,-0.3202,-0.0769,-1.2042,-0.1989,-0.0660,-0.0397,49.25901718,-122.75420065,0.75000000,
2.4980,-0.0425,0.5318,0.9068,-0.3202,-0.0769,-1.2042,-0.1989,-0.0660,-0.0397,49.25901718,-122.75420065,0.75000000,
2.5000,-0.0401,0.5323,0.9095,-0.3202,-0.0769,-1.2042,-0.1989,-0.0660,-0.0397,49.25901718,-122.75420065,0.75000000,
2.5020,-0.0384,0.5350,0.9102,-0.3202,-0.0769,-1.2042,-0.1989,-0.0660,-0.0397,49.25901718,-122.75420065,0.75000000,
2.5040,-0.0374,0.5375,0.9098,-0.3202,-0.0769,-1.2042,-0.1989,-0.0660,-0.0397,49.25901718,-122.75420065,0.75000000,
2.5080,-0.0344,0.5375,0.9090,-0.3202,-0.0769,-1.2042,-0.1989,-0.0660,-0.0397,49.25901718,-122.75420065,0.75000000,
2.5100,-0.0318,0.5409,0.9098,-0.3202,-0.0769,-1.2042,-0.1989,-0.0660,-0.0397,49.25901718,-122.75420065,0.75000000,
2.5130,-0.0313,0.5421,0.9112,-0.3202,-0.0769,-1.2042,-0.1989,-0.0660,-0.0397,49.25901718,-122.75420065,0.75000000,
2.5180,-0.0308,0.5436,0.9137,-0.3202,-0.0769,-1.2042,-0.1989,-0.0660,-0.0397,49.25901718,-122.75420065,0.75000000,
2.5200,-0.0303,0.5450,0.9149,-0.3202,-0.0769,-1.2042,-0.1989,-0.0660,-0.0397,49.25901718,-122.75420065,0.75000000,
2.5220,-0.0276,0.5455,0.9173,-0.3202,-0.0769,-1.2042,-0.1989,-0.0660,-0.0397,49.25901718,-122.75420065,0.75000000,
2.5230,-0.0276,0.5455,0.9173,-0.3202,-0.0769,-1.2042,-0.1209,-0.0664,0.0303,49.25901718,-122.75420065,0.75000000,
2.5250,-0.0271,0.5450,0.9168,-0.3202,-0.0769,-1.2042,-0.1209,-0.0664,0.0303,49.25901718,-122.75420065,0.75000000,
2.5260,-0.0261,0.5455,0.9186,-0.3202,-0.0769,-1.2042,-0.1209,-0.0664,0.0303,49.25901718,-122.75420065,0.75000000,
2.5280,-0.0249,0.5460,0.9195,-0.3202,-0.0769,-1.2042,-0.1209,-0.0664,0.0303,49.25901718,-122.75420065,0.75000000,
2.5300,-0.0242,0.5470,0.9200,-0.3202,-0.0769,-1.2042,-0.1209,-0.0664,0.0303,49.25901718,-122.75420065,0.75000000,
2.5340,-0.0249,0.5472,0.9193,-0.3202,-0.0769,-1.2042,-0.1209,-0.0664,0.0303,49.25901718,-122.75420065,0.75000000,
2.5360,-0.0244,0.5460,0.9183,-0.3202,-0.0769,-1.2042,-0.1209,-0.0664,0.0303,49.25901718,-122.75420065,0.75000000,
2.5380,-0.0244,0.5460,0.9183,-0.3508,-0.0176,0.0648,-0.1209,-0.0664,0.0303,49.25901718,-122.75420065,0.75000000,
2.5390,-0.0244,0.5450,0.9178,-0.3508,-0.0176,0.0648,-0.1209,-0.0664,0.0303,49.25901718,-122.75420065,0.75000000,
2.5400,-0.0259,0.5423,0.9159,-0.3508,-0.0176,0.0648,-0.1209,-0.0664,0.0303,49.25901718,-122.75420065,0.75000000,
2.5420,-0.0269,0.5414,0.9149,-0.3508,-0.0176,0.0648,-0.1209,-0.0664,0.0303,49.25901718,-122.75420065,0.75000000,
2.5460,-0.0266,0.5418,0.9137,-0.3508,-0.0176,0.0648,-0.1209,-0.0664,0.0303,49.25901718,-122.75420065,0.75000000,
2.5480,-0.0266,0.5428,0.9112,-0.3508,-0.0176,0.0648,-0.1209,-0.0664,0.0303,49.25901718,-122.75420065,0.75000000,
2.5520,-0.0269,0.5428,0.9088,-0.3508,-0.0176,0.0648,-0.1209,-0.0664,0.0303,49.25901718,-122.75420065,0.75000000,
2.5550,-0.0288,0.5440,0.9054,-0.3508,-0.0176,0.0648,-0.1209,-0.0664,0.0303,49.25901718,-122.75420065,0.75000000,
2.5570,-0.0274,0.5431,0.9034,-0.3508,-0.0176,0.0648,-0.1209,-0.0664,0.0303,49.25901718,-122.75420065,0.75000000,
2.5590,-0.0291,0.5423,0.8997,-0.3508,-0.0176,0.0648,-0.1209,-0.0664,0.0303,49.25901718,-122.75420065,0.75000000,
2.5610,-0.0310,0.5418,0.8973,-0.3508,-0.0176,0.0648,-0.1209,-0.0664,0.0303,49.25901718,-122.75420065,0.75000000,
2.5650,-0.0308,0.5411,0.8934,-0.3508,-0.0176,0.0648,-0.1209,-0.0664,0.0303,49.25901718,-122.75420065,0.75000000,
2.5670,-0.0322,0.5399,0.8892,-0.3508,-0.0176,0.0648,-0.1209,-0.0664,0.0303,49.25901718,-122.75420065,0.75000000,
2.5690,-0.0344,0.5396,0.8861,-0.3508,-0.0176,0.0648,-0.1209,-0.0664,0.0303,49.25901718,-122.75420065,0.75000000,
2.5710,-0.0354,0.5392,0.8809,-0.3508,-0.0176,0.0648,-0.1209,-0.0664,0.0303,49.25901718,-122.75420065,0.75000000,
