
time,gFx,gFy,gFz,ax,ay,az,wx,wy,wz,Latitude,Longitude,Speed (m/s),
0.0500,-0.1331,0.3142,0.5274,0.0000,0.0000,0.0000,0.0000,0.0000,0.0000,0.00000000,0.00000000,0.00000000,
0.0500,-0.1118,0.2669,0.6937,0.0000,0.0000,0.0000,0.0000,0.0000,0.0000,49.25850687,-122.74672850,1.28999996,
0.0610,-0.1105,0.3072,0.7896,0.0000,0.0000,0.0000,0.0000,0.0000,0.0000,49.25850687,-122.74672850,1.28999996,
0.1110,-0.0905,0.3586,0.8156,0.0000,0.0000,0.0000,0.0000,0.0000,0.0000,49.25850687,-122.74672850,1.28999996,
0.1130,-0.0518,0.4505,0.7544,0.0000,0.0000,0.0000,0.0000,0.0000,0.0000,49.25850687,-122.74672850,1.28999996,
0.1140,-0.0518,0.4505,0.7544,0.0000,0.0000,0.0000,0.3088,-0.0436,-0.1842,49.25850687,-122.74672850,1.28999996,
0.1750,-0.0159,0.4625,0.7247,0.0000,0.0000,0.0000,0.3088,-0.0436,-0.1842,49.25850687,-122.74672850,1.28999996,
0.1770,-0.0975,0.5280,0.8023,0.0000,0.0000,0.0000,0.3088,-0.0436,-0.1842,49.25850687,-122.74672850,1.28999996,
0.1780,-0.0482,0.6476,0.9513,0.0000,0.0000,0.0000,0.3088,-0.0436,-0.1842,49.25850687,-122.74672850,1.28999996,
0.1840,-0.0482,0.6476,0.9513,0.0000,0.0000,0.0000,0.0424,-0.0790,0.1135,49.25850687,-122.74672850,1.28999996,
0.1910,0.0246,0.5774,1.0491,0.0000,0.0000,0.0000,0.0424,-0.0790,0.1135,49.25850687,-122.74672850,1.28999996,
0.1930,0.0246,0.5774,1.0491,0.0000,0.0000,0.0000,0.0424,-0.0790,0.1135,49.25850687,-122.74672850,1.28999996,
0.2420,0.1152,0.5795,1.1175,0.0000,0.0000,0.0000,0.0424,-0.0790,0.1135,49.25850687,-122.74672850,1.28999996,
0.2440,0.1926,0.6212,1.2575,0.0000,0.0000,0.0000,0.0424,-0.0790,0.1135,49.25850687,-122.74672850,1.28999996,
0.2520,0.0774,0.5653,1.2297,0.0000,0.0000,0.0000,0.0424,-0.0790,0.1135,49.25850687,-122.74672850,1.28999996,
0.2540,0.0774,0.5653,1.2297,0.0000,0.0000,0.0000,-0.3293,0.0167,-0.1212,49.25850687,-122.74672850,1.28999996,
0.2620,-0.0348,0.4522,1.2156,0.0000,0.0000,0.0000,-0.3293,0.0167,-0.1212,49.25850687,-122.74672850,1.28999996,
0.2630,-0.0348,0.4522,1.2156,0.2086,0.9790,0.8613,-0.3293,0.0167,-0.1212,49.25850687,-122.74672850,1.28999996,
0.3080,-0.0364,0.3649,1.3106,0.2086,0.9790,0.8613,-0.3293,0.0167,-0.1212,49.25850687,-122.74672850,1.28999996,
0.3090,0.0109,0.2636,1.4583,0.2086,0.9790,0.8613,-0.3293,0.0167,-0.1212,49.25850687,-122.74672850,1.28999996,
0.3230,0.0109,0.2636,1.4583,0.2086,0.9790,0.8613,-0.5742,0.0291,0.0673,49.25850687,-122.74672850,1.28999996,
0.3330,0.0109,0.2636,1.4583,0.8915,0.6235,2.1947,-0.5742,0.0291,0.0673,49.25850687,-122.74672850,1.28999996,
0.3340,-0.0248,0.1875,1.2691,0.8915,0.6235,2.1947,-0.5742,0.0291,0.0673,49.25850687,-122.74672850,1.28999996,
0.3600,-0.1538,0.2002,0.9916,0.8915,0.6235,2.1947,-0.5742,0.0291,0.0673,49.25850687,-122.74672850,1.28999996,
0.3750,-0.3391,0.2502,0.9706,0.8915,0.6235,2.1947,-0.5742,0.0291,0.0673,49.25850687,-122.74672850,1.28999996,
0.3940,-0.3037,0.3159,0.9005,0.8915,0.6235,2.1947,-0.5742,0.0291,0.0673,49.25850687,-122.74672850,1.28999996,
0.3960,-0.3037,0.3159,0.9005,0.8915,0.6235,2.1947,0.0963,0.2870,0.5517,49.25850687,-122.74672850,1.28999996,
0.4050,-0.2017,0.3486,0.8830,0.8915,0.6235,2.1947,0.0963,0.2870,0.5517,49.25850687,-122.74672850,1.28999996,
0.4060,-0.2017,0.3486,0.8830,-0.2615,-1.6572,2.2291,0.0963,0.2870,0.5517,49.25850687,-122.74672850,1.28999996,
0.4420,-0.0760,0.4105,0.8588,-0.2615,-1.6572,2.2291,0.0963,0.2870,0.5517,49.25850687,-122.74672850,1.28999996,
0.4670,0.0254,0.3427,0.7262,-0.2615,-1.6572,2.2291,0.0963,0.2870,0.5517,49.25850687,-122.74672850,1.28999996,
0.4690,0.0254,0.3427,0.7262,-0.2615,-1.6572,2.2291,-0.5234,-0.4862,-0.0153,49.25850687,-122.74672850,1.28999996,
0.4770,0.0254,0.3427,0.7262,-2.4031,-0.8073,-1.2693,-0.5234,-0.4862,-0.0153,49.25850687,-122.74672850,1.28999996,
0.4780,0.1053,0.2956,0.6546,-2.4031,-0.8073,-1.2693,-0.5234,-0.4862,-0.0153,49.25850687,-122.74672850,1.28999996,
0.5090,0.1068,0.2548,0.6670,-2.4031,-0.8073,-1.2693,-0.5234,-0.4862,-0.0153,49.25850687,-122.74672850,1.28999996,
0.5110,0.0994,0.1851,0.6750,-2.4031,-0.8073,-1.2693,-0.5234,-0.4862,-0.0153,49.25850687,-122.74672850,1.28999996,
0.5380,0.0994,0.1851,0.6750,-2.4031,-0.8073,-1.2693,-0.3087,-0.6986,-0.4285,49.25850687,-122.74672850,1.28999996,
0.5400,0.1410,0.2114,0.6238,-2.4031,-0.8073,-1.2693,-0.3087,-0.6986,-0.4285,49.25850687,-122.74672850,1.28999996,
0.5480,0.1410,0.2114,0.6238,0.1467,-0.1359,-2.6660,-0.3087,-0.6986,-0.4285,49.25850687,-122.74672850,1.28999996,
0.5500,0.0304,0.2654,0.6443,0.1467,-0.1359,-2.6660,-0.3087,-0.6986,-0.4285,49.25850687,-122.74672850,1.28999996,
0.5750,-0.0375,0.1945,0.7226,0.1467,-0.1359,-2.6660,-0.3087,-0.6986,-0.4285,49.25850687,-122.74672850,1.28999996,
0.6120,0.0457,0.2682,0.6259,0.1467,-0.1359,-2.6660,-0.3087,-0.6986,-0.4285,49.25850687,-122.74672850,1.28999996,
0.6130,0.0457,0.2682,0.6259,0.1467,-0.1359,-2.6660,0.9511,-0.1188,0.5170,49.25850687,-122.74672850,1.28999996,
0.6150,-0.0931,0.3286,0.5097,0.1467,-0.1359,-2.6660,0.9511,-0.1188,0.5170,49.25850687,-122.74672850,1.28999996,
0.6180,-0.0931,0.3286,0.5097,0.3985,-1.6419,-2.7465,0.9511,-0.1188,0.5170,49.25850687,-122.74672850,1.28999996,
0.6420,-0.1721,0.3394,0.6652,0.3985,-1.6419,-2.7465,0.9511,-0.1188,0.5170,49.25850687,-122.74672850,1.28999996,
0.6790,-0.0651,0.4154,0.8167,0.3985,-1.6419,-2.7465,0.9511,-0.1188,0.5170,49.25850687,-122.74672850,1.28999996,
0.6810,-0.0651,0.4154,0.8167,0.3985,-1.6419,-2.7465,-0.3664,-0.2106,0.0308,49.25850687,-122.74672850,1.28999996,
0.6830,0.0859,0.4462,0.8957,0.3985,-1.6419,-2.7465,-0.3664,-0.2106,0.0308,49.25850687,-122.74672850,1.28999996,
0.6900,0.1379,0.4945,0.9440,0.3985,-1.6419,-2.7465,-0.3664,-0.2106,0.0308,49.25850687,-122.74672850,1.28999996,
0.6920,0.1379,0.4945,0.9440,-0.8928,-0.7557,-2.7866,-0.3664,-0.2106,0.0308,49.25850687,-122.74672850,1.28999996,
0.7510,0.1379,0.4945,0.9440,-0.8928,-0.7557,-2.7866,-0.2803,-0.1928,-0.6288,49.25850687,-122.74672850,1.28999996,
0.7530,0.1763,0.5450,1.0651,-0.8928,-0.7557,-2.7866,-0.2803,-0.1928,-0.6288,49.25850687,-122.74672850,1.28999996,
0.7540,0.2193,0.4734,1.2694,-0.8928,-0.7557,-2.7866,-0.2803,-0.1928,-0.6288,49.25850687,-122.74672850,1.28999996,
0.7600,0.2193,0.4734,1.2694,-0.2074,0.8660,-0.4070,-0.2803,-0.1928,-0.6288,49.25850687,-122.74672850,1.28999996,
0.7620,0.3019,0.4254,1.4565,-0.2074,0.8660,-0.4070,-0.2803,-0.1928,-0.6288,49.25850687,-122.74672850,1.28999996,
0.7730,0.4493,0.4121,1.4065,-0.2074,0.8660,-0.4070,-0.2803,-0.1928,-0.6288,49.25850687,-122.74672850,1.28999996,
0.8210,0.4403,0.4212,1.1433,-0.2074,0.8660,-0.4070,-0.2803,-0.1928,-0.6288,49.25850687,-122.74672850,1.28999996,
0.8230,0.4403,0.4212,1.1433,-0.2074,0.8660,-0.4070,0.0842,-0.8068,-1.0518,49.25850406,-122.74674560,1.26999998,
0.8250,0.3263,0.5063,1.1383,-0.2074,0.8660,-0.4070,0.0842,-0.8068,-1.0518,49.25850406,-122.74674560,1.26999998,
0.8310,0.2035,0.3855,1.4093,-0.2074,0.8660,-0.4070,0.0842,-0.8068,-1.0518,49.25850406,-122.74674560,1.26999998,
0.8330,0.2035,0.3855,1.4093,1.6548,0.9994,3.4394,0.0842,-0.8068,-1.0518,49.25850406,-122.74674560,1.26999998,
0.8630,0.3021,0.1776,1.4529,1.6548,0.9994,3.4394,0.0842,-0.8068,-1.0518,49.25850406,-122.74674560,1.26999998,
0.8930,0.3282,0.1673,1.1683,1.6548,0.9994,3.4394,0.0842,-0.8068,-1.0518,49.25850406,-122.74674560,1.26999998,
0.8950,0.3282,0.1673,1.1683,1.6548,0.9994,3.4394,0.0318,-0.8807,-0.3886,49.25850406,-122.74674560,1.26999998,
0.9030,0.2182,0.2324,1.0696,1.6548,0.9994,3.4394,0.0318,-0.8807,-0.3886,49.25850406,-122.74674560,1.26999998,
0.9040,0.2182,0.2324,1.0696,1.8472,0.5525,2.8837,0.0318,-0.8807,-0.3886,49.25850406,-122.74674560,1.26999998,
0.9640,0.4292,0.2332,1.0738,1.8472,0.5525,2.8837,0.0318,-0.8807,-0.3886,49.25850406,-122.74674560,1.26999998,
0.9650,0.4965,0.2470,1.0653,1.8472,0.5525,2.8837,0.0318,-0.8807,-0.3886,49.25850406,-122.74674560,1.26999998,
0.9670,0.4096,0.2250,0.9802,1.8472,0.5525,2.8837,0.0318,-0.8807,-0.3886,49.25850406,-122.74674560,1.26999998,
0.9680,0.4096,0.2250,0.9802,1.8472,0.5525,2.8837,0.1968,-1.4138,-0.4902,49.25850406,-122.74674560,1.26999998,
0.9740,0.4096,0.2250,0.9802,0.4592,-1.7964,2.5054,0.1968,-1.4138,-0.4902,49.25850406,-122.74674560,1.26999998,
0.9760,0.3744,0.1256,0.8031,0.4592,-1.7964,2.5054,0.1968,-1.4138,-0.4902,49.25850406,-122.74674560,1.26999998,
1.0340,0.3744,0.1256,0.8031,0.4592,-1.7964,2.5054,0.3807,-1.3820,-0.9280,49.25850406,-122.74674560,1.26999998,
1.0360,0.2879,0.2581,0.7116,0.4592,-1.7964,2.5054,0.3807,-1.3820,-0.9280,49.25850406,-122.74674560,1.26999998,
1.0370,0.2379,0.2657,0.4785,0.4592,-1.7964,2.5054,0.3807,-1.3820,-0.9280,49.25850406,-122.74674560,1.26999998,
1.0420,0.2271,0.2631,0.2786,0.4592,-1.7964,2.5054,0.3807,-1.3820,-0.9280,49.25850406,-122.74674560,1.26999998,
1.0430,0.2271,0.2631,0.2786,1.1558,-2.0903,0.4613,0.3807,-1.3820,-0.9280,49.25850406,-122.74674560,1.26999998,
1.1050,0.2271,0.2631,0.2786,1.1558,-2.0903,0.4613,-0.2159,-1.5268,-1.2933,49.25850406,-122.74674560,1.26999998,
1.1070,0.1577,0.2554,0.2539,1.1558,-2.0903,0.4613,-0.2159,-1.5268,-1.2933,49.25850406,-122.74674560,1.26999998,
1.1080,0.0699,0.3051,0.3343,1.1558,-2.0903,0.4613,-0.2159,-1.5268,-1.2933,49.25850406,-122.74674560,1.26999998,
1.1090,-0.0713,0.3429,0.4528,1.1558,-2.0903,0.4613,-0.2159,-1.5268,-1.2933,49.25850406,-122.74674560,1.26999998,
1.1150,-0.0713,0.3429,0.4528,-1.2056,-1.4919,-3.9926,-0.2159,-1.5268,-1.2933,49.25850406,-122.74674560,1.26999998,
1.1170,-0.1637,0.4350,0.6024,-1.2056,-1.4919,-3.9926,-0.2159,-1.5268,-1.2933,49.25850406,-122.74674560,1.26999998,
1.1750,-0.1307,0.5247,0.6668,-1.2056,-1.4919,-3.9926,-0.2159,-1.5268,-1.2933,49.25850406,-122.74674560,1.26999998,
1.1780,0.1284,0.4562,0.5796,-1.2056,-1.4919,-3.9926,-0.2159,-1.5268,-1.2933,49.25850406,-122.74674560,1.26999998,
1.1790,0.1284,0.4562,0.5796,-1.2056,-1.4919,-3.9926,-0.0209,-0.7017,-0.0473,49.25850406,-122.74674560,1.26999998,
1.1810,0.2911,0.5158,0.6471,-1.2056,-1.4919,-3.9926,-0.0209,-0.7017,-0.0473,49.25850406,-122.74674560,1.26999998,
1.1860,0.2911,0.5158,0.6471,-4.0020,-0.5908,-3.7237,-0.0209,-0.7017,-0.0473,49.25850406,-122.74674560,1.26999998,
1.2430,0.3755,0.5299,0.8067,-4.0020,-0.5908,-3.7237,-0.0209,-0.7017,-0.0473,49.25850406,-122.74674560,1.26999998,
1.2450,0.4074,0.5663,0.9430,-4.0020,-0.5908,-3.7237,-0.0209,-0.7017,-0.0473,49.25850406,-122.74674560,1.26999998,
1.2470,0.5116,0.5670,0.8968,-4.0020,-0.5908,-3.7237,-0.0209,-0.7017,-0.0473,49.25850406,-122.74674560,1.26999998,
1.2490,0.5116,0.5670,0.8968,-4.0020,-0.5908,-3.7237,-0.0119,-0.7344,-0.0696,49.25850406,-122.74674560,1.26999998,
1.2580,0.5116,0.5670,0.8968,-2.6120,0.8273,-1.3247,-0.0119,-0.7344,-0.0696,49.25850406,-122.74674560,1.26999998,
1.2600,0.5958,0.6956,0.9210,-2.6120,0.8273,-1.3247,-0.0119,-0.7344,-0.0696,49.25850406,-122.74674560,1.26999998,
1.3090,0.5274,0.8344,1.1147,-2.6120,0.8273,-1.3247,-0.0119,-0.7344,-0.0696,49.25850406,-122.74674560,1.26999998,
1.3110,0.5057,0.8263,1.2924,-2.6120,0.8273,-1.3247,-0.0119,-0.7344,-0.0696,49.25850406,-122.74674560,1.26999998,
1.3180,0.5057,0.8263,1.2924,-2.6120,0.8273,-1.3247,-0.2062,-1.0892,-0.2379,49.25850406,-122.74674560,1.26999998,
1.3290,0.5057,0.8263,1.2924,0.3124,1.8061,1.3781,-0.2062,-1.0892,-0.2379,49.25850406,-122.74674560,1.26999998,
1.3300,0.6860,0.4657,1.2695,0.3124,1.8061,1.3781,-0.2062,-1.0892,-0.2379,49.25850406,-122.74674560,1.26999998,
1.3650,0.8230,0.4049,1.3170,0.3124,1.8061,1.3781,-0.2062,-1.0892,-0.2379,49.25850406,-122.74674560,1.26999998,
1.3670,0.6674,0.3929,1.4080,0.3124,1.8061,1.3781,-0.2062,-1.0892,-0.2379,49.25850406,-122.74674560,1.26999998,
1.3810,0.5448,0.3988,1.2538,0.3124,1.8061,1.3781,-0.2062,-1.0892,-0.2379,49.25850406,-122.74674560,1.26999998,
1.3900,0.5448,0.3988,1.2538,0.3124,1.8061,1.3781,-0.5462,0.1328,0.8122,49.25850406,-122.74674560,1.26999998,
1.3990,0.4671,0.3937,1.1042,0.3124,1.8061,1.3781,-0.5462,0.1328,0.8122,49.25850406,-122.74674560,1.26999998,
1.4020,0.4671,0.3937,1.1042,1.3473,2.8265,4.0643,-0.5462,0.1328,0.8122,49.25850406,-122.74674560,1.26999998,
1.4420,0.4599,0.3851,1.0306,1.3473,2.8265,4.0643,-0.5462,0.1328,0.8122,49.25850406,-122.74674560,1.26999998,
1.4450,0.4967,0.3346,0.9950,1.3473,2.8265,4.0643,-0.5462,0.1328,0.8122,49.25850406,-122.74674560,1.26999998,
1.4620,0.4967,0.3346,0.9950,1.3473,2.8265,4.0643,-0.6329,0.5384,0.8145,49.25850406,-122.74674560,1.26999998,
1.4710,0.4967,0.3346,0.9950,1.3076,0.8165,3.8521,-0.6329,0.5384,0.8145,49.25850406,-122.74674560,1.26999998,
1.4750,0.4444,0.2965,0.9846,1.3076,0.8165,3.8521,-0.6329,0.5384,0.8145,49.25850406,-122.74674560,1.26999998,
1.5090,0.2979,0.3253,0.8912,1.3076,0.8165,3.8521,-0.6329,0.5384,0.8145,49.25850406,-122.74674560,1.26999998,
1.5120,0.2096,0.4239,0.7594,1.3076,0.8165,3.8521,-0.6329,0.5384,0.8145,49.25850406,-122.74674560,1.26999998,
1.5320,0.1871,0.4879,0.6430,1.3076,0.8165,3.8521,-0.6329,0.5384,0.8145,49.25850406,-122.74674560,1.26999998,
1.5350,0.1871,0.4879,0.6430,1.3076,0.8165,3.8521,-0.4439,1.5281,0.6054,49.25850406,-122.74674560,1.26999998,
1.5430,0.1871,0.4879,0.6430,0.7098,0.5882,0.5361,-0.4439,1.5281,0.6054,49.25850406,-122.74674560,1.26999998,
1.5450,0.1550,0.4622,0.6684,0.7098,0.5882,0.5361,-0.4439,1.5281,0.6054,49.25850406,-122.74674560,1.26999998,
1.5760,0.0722,0.3448,0.7412,0.7098,0.5882,0.5361,-0.4439,1.5281,0.6054,49.25850406,-122.74674560,1.26999998,
1.6030,0.0722,0.3448,0.7412,0.7098,0.5882,0.5361,-0.2088,1.4901,0.1606,49.25850406,-122.74674560,1.26999998,
1.6060,-0.0090,0.2530,0.7251,0.7098,0.5882,0.5361,-0.2088,1.4901,0.1606,49.25850406,-122.74674560,1.26999998,
1.6120,0.0329,0.1975,0.6424,0.7098,0.5882,0.5361,-0.2088,1.4901,0.1606,49.25850406,-122.74674560,1.26999998,
1.6140,0.0329,0.1975,0.6424,-0.7911,1.6578,-2.3827,-0.2088,1.4901,0.1606,49.25850406,-122.74674560,1.26999998,
1.6440,0.1068,0.2025,0.6360,-0.7911,1.6578,-2.3827,-0.2088,1.4901,0.1606,49.25850406,-122.74674560,1.26999998,
1.6750,0.1825,0.1958,0.6550,-0.7911,1.6578,-2.3827,-0.2088,1.4901,0.1606,49.25850406,-122.74674560,1.26999998,
1.6780,0.1487,0.2025,0.7563,-0.7911,1.6578,-2.3827,-0.2088,1.4901,0.1606,49.25850406,-122.74674560,1.26999998,
1.6800,0.1487,0.2025,0.7563,-0.7911,1.6578,-2.3827,0.7015,0.8642,0.2717,49.25850406,-122.74674560,1.26999998,
1.6880,0.1314,0.2190,0.8102,-0.7911,1.6578,-2.3827,0.7015,0.8642,0.2717,49.25850406,-122.74674560,1.26999998,
1.6910,0.1314,0.2190,0.8102,-1.7543,-0.5949,-2.4925,0.7015,0.8642,0.2717,49.25850406,-122.74674560,1.26999998,
1.7090,0.1980,0.1614,0.8177,-1.7543,-0.5949,-2.4925,0.7015,0.8642,0.2717,49.25850406,-122.74674560,1.26999998,
1.7460,0.1980,0.1614,0.8177,-1.7543,-0.5949,-2.4925,-0.0768,-0.0216,0.1219,49.25850406,-122.74674560,1.26999998,
1.7490,0.3368,0.1592,0.9812,-1.7543,-0.5949,-2.4925,-0.0768,-0.0216,0.1219,49.25850406,-122.74674560,1.26999998,
1.7550,0.3368,0.1592,0.9812,-0.7733,-0.8449,-2.0697,-0.0768,-0.0216,0.1219,49.25850406,-122.74674560,1.26999998,
1.7590,0.3002,0.1174,1.2590,-0.7733,-0.8449,-2.0697,-0.0768,-0.0216,0.1219,49.25850406,-122.74674560,1.26999998,
1.7760,0.3629,0.0647,1.2575,-0.7733,-0.8449,-2.0697,-0.0768,-0.0216,0.1219,49.25850406,-122.74674560,1.26999998,
1.8180,0.4236,0.0376,1.1718,-0.7733,-0.8449,-2.0697,-0.0768,-0.0216,0.1219,49.25850406,-122.74674560,1.26999998,
1.8210,0.3447,0.0161,1.1256,-0.7733,-0.8449,-2.0697,-0.0768,-0.0216,0.1219,49.25850406,-122.74674560,1.26999998,
1.8230,0.3447,0.0161,1.1256,-0.7733,-0.8449,-2.0697,-0.9544,-0.2205,0.3984,49.25850406,-122.74674560,1.26999998,
1.8300,0.4997,0.0944,1.2369,-0.7733,-0.8449,-2.0697,-0.9544,-0.2205,0.3984,49.25850406,-122.74674560,1.26999998,
1.8320,0.4997,0.0944,1.2369,0.3206,-0.7739,0.9657,-0.9544,-0.2205,0.3984,49.25850406,-122.74674560,1.26999998,
1.8610,0.6630,0.1196,1.3488,0.3206,-0.7739,0.9657,-0.9544,-0.2205,0.3984,49.25850406,-122.74674560,1.26999998,
1.8880,0.4604,0.0314,1.2835,0.3206,-0.7739,0.9657,-0.9544,-0.2205,0.3984,49.25850667,-122.74676564,1.33000004,
1.8920,0.4604,0.0314,1.2835,0.3206,-0.7739,0.9657,-0.6109,0.2567,0.1895,49.25850667,-122.74676564,1.33000004,
1.8990,0.2494,-0.0296,1.0849,0.3206,-0.7739,0.9657,-0.6109,0.2567,0.1895,49.25850667,-122.74676564,1.33000004,
1.9020,0.2494,-0.0296,1.0849,1.7274,-1.1905,2.0407,-0.6109,0.2567,0.1895,49.25850667,-122.74676564,1.33000004,
1.9090,0.3283,-0.0592,0.9915,1.7274,-1.1905,2.0407,-0.6109,0.2567,0.1895,49.25850667,-122.74676564,1.33000004,
1.9590,0.4428,0.0103,1.0306,1.7274,-1.1905,2.0407,-0.6109,0.2567,0.1895,49.25850667,-122.74676564,1.33000004,
1.9620,0.4428,0.0103,1.0306,1.7274,-1.1905,2.0407,-0.1388,-0.2606,0.2419,49.25850667,-122.74676564,1.33000004,
1.9640,0.4728,-0.0209,0.9796,1.7274,-1.1905,2.0407,-0.1388,-0.2606,0.2419,49.25850667,-122.74676564,1.33000004,
1.9710,0.4283,-0.0143,0.9700,1.7274,-1.1905,2.0407,-0.1388,-0.2606,0.2419,49.25850667,-122.74676564,1.33000004,
1.9730,0.4283,-0.0143,0.9700,1.5797,-1.2382,2.1541,-0.1388,-0.2606,0.2419,49.25850667,-122.74676564,1.33000004,
2.0300,0.2978,-0.0353,0.8900,1.5797,-1.2382,2.1541,-0.1388,-0.2606,0.2419,49.25850667,-122.74676564,1.33000004,
2.0330,0.2978,-0.0353,0.8900,1.5797,-1.2382,2.1541,-0.4151,-0.0267,0.2460,49.25850667,-122.74676564,1.33000004,
2.0350,0.1443,-0.0529,0.7422,1.5797,-1.2382,2.1541,-0.4151,-0.0267,0.2460,49.25850667,-122.74676564,1.33000004,
2.0430,0.1689,0.0304,0.6167,1.5797,-1.2382,2.1541,-0.4151,-0.0267,0.2460,49.25850667,-122.74676564,1.33000004,
2.0450,0.1689,0.0304,0.6167,1.5267,-1.2760,0.0568,-0.4151,-0.0267,0.2460,49.25850667,-122.74676564,1.33000004,
2.1010,0.1689,0.0304,0.6167,1.5267,-1.2760,0.0568,0.0579,-0.4002,0.2800,49.25850667,-122.74676564,1.33000004,
2.1050,0.2029,0.1366,0.5162,1.5267,-1.2760,0.0568,0.0579,-0.4002,0.2800,49.25850667,-122.74676564,1.33000004,
2.1060,0.2006,0.1413,0.4276,1.5267,-1.2760,0.0568,0.0579,-0.4002,0.2800,49.25850667,-122.74676564,1.33000004,
2.1080,0.1702,0.0616,0.4688,1.5267,-1.2760,0.0568,0.0579,-0.4002,0.2800,49.25850667,-122.74676564,1.33000004,
2.1100,0.1573,0.0170,0.7298,1.5267,-1.2760,0.0568,0.0579,-0.4002,0.2800,49.25850667,-122.74676564,1.33000004,
2.1120,0.1573,0.0170,0.7298,-1.0335,-1.1208,-2.4270,0.0579,-0.4002,0.2800,49.25850667,-122.74676564,1.33000004,
2.1720,0.1573,0.0170,0.7298,-1.0335,-1.1208,-2.4270,1.2849,-0.7308,0.5845,49.25850667,-122.74676564,1.33000004,
2.1750,0.0671,0.0144,0.7304,-1.0335,-1.1208,-2.4270,1.2849,-0.7308,0.5845,49.25850667,-122.74676564,1.33000004,
2.1770,0.0268,-0.0100,0.5941,-1.0335,-1.1208,-2.4270,1.2849,-0.7308,0.5845,49.25850667,-122.74676564,1.33000004,
2.1790,0.1206,0.0690,0.4647,-1.0335,-1.1208,-2.4270,1.2849,-0.7308,0.5845,49.25850667,-122.74676564,1.33000004,
2.1820,0.1206,0.0690,0.4647,-1.8720,-1.0256,-3.7531,1.2849,-0.7308,0.5845,49.25850667,-122.74676564,1.33000004,
2.2440,0.2684,0.1693,0.5742,-1.8720,-1.0256,-3.7531,1.2849,-0.7308,0.5845,49.25850667,-122.74676564,1.33000004,
2.2470,0.2684,0.1693,0.5742,-1.8720,-1.0256,-3.7531,1.0646,-1.6620,1.3707,49.25850667,-122.74676564,1.33000004,
2.2490,0.4855,0.1296,0.7590,-1.8720,-1.0256,-3.7531,1.0646,-1.6620,1.3707,49.25850667,-122.74676564,1.33000004,
2.2510,0.6112,0.1298,0.9085,-1.8720,-1.0256,-3.7531,1.0646,-1.6620,1.3707,49.25850667,-122.74676564,1.33000004,
2.2530,0.7171,0.1469,1.0668,-1.8720,-1.0256,-3.7531,1.0646,-1.6620,1.3707,49.25850667,-122.74676564,1.33000004,
2.2550,0.7171,0.1469,1.0668,-3.8227,-1.5807,-2.5026,1.0646,-1.6620,1.3707,49.25850667,-122.74676564,1.33000004,
2.3110,0.9160,0.1485,0.9968,-3.8227,-1.5807,-2.5026,1.0646,-1.6620,1.3707,49.25850667,-122.74676564,1.33000004,
2.3150,1.0797,0.2643,0.9528,-3.8227,-1.5807,-2.5026,1.0646,-1.6620,1.3707,49.25850667,-122.74676564,1.33000004,
2.3170,1.0797,0.2643,0.9528,-3.8227,-1.5807,-2.5026,1.4121,-1.4879,1.1909,49.25850667,-122.74676564,1.33000004,
2.3250,1.0385,0.2173,0.9861,-3.8227,-1.5807,-2.5026,1.4121,-1.4879,1.1909,49.25850667,-122.74676564,1.33000004,
2.3270,1.0385,0.2173,0.9861,-0.2097,-1.0327,1.0386,1.4121,-1.4879,1.1909,49.25850667,-122.74676564,1.33000004,
2.3630,0.9349,0.0887,0.8350,-0.2097,-1.0327,1.0386,1.4121,-1.4879,1.1909,49.25850667,-122.74676564,1.33000004,
2.3660,0.7645,0.0966,0.6490,-0.2097,-1.0327,1.0386,1.4121,-1.4879,1.1909,49.25850667,-122.74676564,1.33000004,
2.3740,0.6424,-0.0206,0.7282,-0.2097,-1.0327,1.0386,1.4121,-1.4879,1.1909,49.25850667,-122.74676564,1.33000004,
2.3840,0.6424,-0.0206,0.7282,-0.2097,-1.0327,1.0386,1.3300,-1.8821,1.0554,49.25850667,-122.74676564,1.33000004,
2.3950,0.6424,-0.0206,0.7282,2.8114,-0.4948,3.0020,1.3300,-1.8821,1.0554,49.25850667,-122.74676564,1.33000004,
2.3980,0.8723,-0.1523,0.9067,2.8114,-0.4948,3.0020,1.3300,-1.8821,1.0554,49.25850667,-122.74676564,1.33000004,
2.4430,1.0975,-0.0318,0.9049,2.8114,-0.4948,3.0020,1.3300,-1.8821,1.0554,49.25850667,-122.74676564,1.33000004,
2.4460,1.0440,0.0485,0.7296,2.8114,-0.4948,3.0020,1.3300,-1.8821,1.0554,49.25850667,-122.74676564,1.33000004,
2.4550,1.0440,0.0485,0.7296,2.8114,-0.4948,3.0020,1.9500,-2.3963,2.8920,49.25850667,-122.74676564,1.33000004,
2.4700,0.8003,-0.1235,0.6399,2.8114,-0.4948,3.0020,1.9500,-2.3963,2.8920,49.25850667,-122.74676564,1.33000004,
2.4740,0.8003,-0.1235,0.6399,-0.7733,-1.6421,2.5689,1.9500,-2.3963,2.8920,49.25850667,-122.74676564,1.33000004,
2.5100,0.9335,-0.1489,0.8550,-0.7733,-1.6421,2.5689,1.9500,-2.3963,2.8920,49.25850667,-122.74676564,1.33000004,
2.5130,1.0921,0.0443,1.1399,-0.7733,-1.6421,2.5689,1.9500,-2.3963,2.8920,49.25850667,-122.74676564,1.33000004,
2.5270,0.9598,0.1871,0.8366,-0.7733,-1.6421,2.5689,1.9500,-2.3963,2.8920,49.25850667,-122.74676564,1.33000004,
2.5300,0.9598,0.1871,0.8366,-0.7733,-1.6421,2.5689,2.5923,-1.3688,3.7089,49.25850667,-122.74676564,1.33000004,
2.5370,0.9598,0.1871,0.8366,0.4763,-0.6335,3.1771,2.5923,-1.3688,3.7089,49.25850667,-122.74676564,1.33000004,
2.5400,0.6242,0.4315,0.4036,0.4763,-0.6335,3.1771,2.5923,-1.3688,3.7089,49.25850667,-122.74676564,1.33000004,
2.5760,0.7307,0.6222,0.4372,0.4763,-0.6335,3.1771,2.5923,-1.3688,3.7089,49.25850667,-122.74676564,1.33000004,
2.5850,0.9079,0.7149,0.4275,0.4763,-0.6335,3.1771,2.5923,-1.3688,3.7089,49.25850667,-122.74676564,1.33000004,
2.5980,0.9079,0.7149,0.4275,0.4763,-0.6335,3.1771,2.5386,0.3530,2.6612,49.25850667,-122.74676564,1.33000004,
2.6080,0.9079,0.7149,0.4275,0.1022,2.3879,3.3614,2.5386,0.3530,2.6612,49.25850667,-122.74676564,1.33000004,
2.6120,0.6263,0.6502,0.1787,0.1022,2.3879,3.3614,2.5386,0.3530,2.6612,49.25850667,-122.74676564,1.33000004,
2.6420,0.4232,0.5763,-0.0429,0.1022,2.3879,3.3614,2.5386,0.3530,2.6612,49.25850667,-122.74676564,1.33000004,
2.6450,0.5399,0.5208,-0.2598,0.1022,2.3879,3.3614,2.5386,0.3530,2.6612,49.25850667,-122.74676564,1.33000004,
2.6700,0.6972,0.4749,-0.2971,0.1022,2.3879,3.3614,2.5386,0.3530,2.6612,49.25850667,-122.74676564,1.33000004,
2.6730,0.6972,0.4749,-0.2971,0.1022,2.3879,3.3614,1.9459,-0.5880,0.8629,49.25850667,-122.74676564,1.33000004,
2.6790,0.6894,0.2579,-0.0597,0.1022,2.3879,3.3614,1.9459,-0.5880,0.8629,49.25850667,-122.74676564,1.33000004,
2.6810,0.6894,0.2579,-0.0597,-2.0422,6.6612,-1.1715,1.9459,-0.5880,0.8629,49.25850667,-122.74676564,1.33000004,
2.7100,0.7488,0.1957,-0.0886,-2.0422,6.6612,-1.1715,1.9459,-0.5880,0.8629,49.25850667,-122.74676564,1.33000004,
2.7410,1.0271,0.1851,-0.0706,-2.0422,6.6612,-1.1715,1.9459,-0.5880,0.8629,49.25850667,-122.74676564,1.33000004,
2.7450,1.0271,0.1851,-0.0706,-2.0422,6.6612,-1.1715,0.9146,-3.0067,-0.2200,49.25850667,-122.74676564,1.33000004,
2.7530,1.0271,0.1851,-0.0706,-3.6117,4.1725,-3.8019,0.9146,-3.0067,-0.2200,49.25850667,-122.74676564,1.33000004,
2.7560,1.3477,0.1294,-0.2315,-3.6117,4.1725,-3.8019,0.9146,-3.0067,-0.2200,49.25850667,-122.74676564,1.33000004,
2.7750,1.4313,0.1653,-0.1482,-3.6117,4.1725,-3.8019,0.9146,-3.0067,-0.2200,49.25850667,-122.74676564,1.33000004,
2.7830,1.5033,0.0958,-0.1267,-3.6117,4.1725,-3.8019,0.9146,-3.0067,-0.2200,49.25850667,-122.74676564,1.33000004,
2.8130,1.5033,0.0958,-0.1267,-3.6117,4.1725,-3.8019,-1.1298,-2.5140,-0.3930,49.25850667,-122.74676564,1.33000004,
2.8160,1.5694,0.0195,-0.2267,-3.6117,4.1725,-3.8019,-1.1298,-2.5140,-0.3930,49.25850667,-122.74676564,1.33000004,
2.8220,1.5694,0.0195,-0.2267,0.8918,1.2123,-1.5787,-1.1298,-2.5140,-0.3930,49.25850667,-122.74676564,1.33000004,
2.8240,1.4493,0.1054,-0.3490,0.8918,1.2123,-1.5787,-1.1298,-2.5140,-0.3930,49.25850667,-122.74676564,1.33000004,
2.8420,1.3662,0.0408,-0.2609,0.8918,1.2123,-1.5787,-1.1298,-2.5140,-0.3930,49.25850667,-122.74676564,1.33000004,
2.8810,1.2772,-0.0445,-0.1024,0.8918,1.2123,-1.5787,-1.1298,-2.5140,-0.3930,49.25850733,-122.74678325,1.15999997,
2.8870,1.2772,-0.0445,-0.1024,0.8918,1.2123,-1.5787,-1.6459,-2.1829,-0.1920,49.25850733,-122.74678325,1.15999997,
2.8960,1.2772,-0.0445,-0.1024,4.8981,0.3213,-0.9102,-1.6459,-2.1829,-0.1920,49.25850733,-122.74678325,1.15999997,
2.9000,1.3492,0.0057,0.0529,4.8981,0.3213,-0.9102,-1.6459,-2.1829,-0.1920,49.25850733,-122.74678325,1.15999997,
2.9090,1.6468,0.0326,0.1958,4.8981,0.3213,-0.9102,-1.6459,-2.1829,-0.1920,49.25850733,-122.74678325,1.15999997,
2.9540,1.6370,-0.1890,0.2623,4.8981,0.3213,-0.9102,-1.6459,-2.1829,-0.1920,49.25850733,-122.74678325,1.15999997,
2.9580,1.6370,-0.1890,0.2623,4.8981,0.3213,-0.9102,0.4180,-1.1963,-0.5765,49.25850733,-122.74678325,1.15999997,
2.9600,1.3103,-0.4734,0.1959,4.8981,0.3213,-0.9102,0.4180,-1.1963,-0.5765,49.25850733,-122.74678325,1.15999997,
2.9630,1.1988,-0.6681,0.0548,4.8981,0.3213,-0.9102,0.4180,-1.1963,-0.5765,49.25850733,-122.74678325,1.15999997,
2.9650,1.1988,-0.6681,0.0548,3.6088,-0.8194,1.2488,0.4180,-1.1963,-0.5765,49.25850733,-122.74678325,1.15999997,
3.0260,1.0775,-0.6627,-0.0248,3.6088,-0.8194,1.2488,0.4180,-1.1963,-0.5765,49.25850733,-122.74678325,1.15999997,
3.0300,1.0775,-0.6627,-0.0248,3.6088,-0.8194,1.2488,0.7946,0.2542,0.1504,49.25850733,-122.74678325,1.15999997,
3.0320,1.0672,-0.6591,-0.0359,3.6088,-0.8194,1.2488,0.7946,0.2542,0.1504,49.25850733,-122.74678325,1.15999997,
3.0340,1.0672,-0.6591,-0.0359,4.0367,-4.1748,3.3100,0.7946,0.2542,0.1504,49.25850733,-122.74678325,1.15999997,
3.0360,0.9426,-0.5592,0.1055,4.0367,-4.1748,3.3100,0.7946,0.2542,0.1504,49.25850733,-122.74678325,1.15999997,
3.0970,0.9426,-0.5592,0.1055,4.0367,-4.1748,3.3100,0.4005,0.7042,0.9593,49.25850733,-122.74678325,1.15999997,
3.1020,0.7548,-0.4109,0.0009,4.0367,-4.1748,3.3100,0.4005,0.7042,0.9593,49.25850733,-122.74678325,1.15999997,
3.1040,0.6670,-0.2197,0.0618,4.0367,-4.1748,3.3100,0.4005,0.7042,0.9593,49.25850733,-122.74678325,1.15999997,
3.1060,0.5254,-0.1219,0.1394,4.0367,-4.1748,3.3100,0.4005,0.7042,0.9593,49.25850733,-122.74678325,1.15999997,
3.1070,0.5254,-0.1219,0.1394,-0.2937,-5.5196,1.1675,0.4005,0.7042,0.9593,49.25850733,-122.74678325,1.15999997,
3.1090,0.4047,-0.0303,0.0975,-0.2937,-5.5196,1.1675,0.4005,0.7042,0.9593,49.25850733,-122.74678325,1.15999997,
3.1670,0.3877,0.0864,0.1184,-0.2937,-5.5196,1.1675,0.4005,0.7042,0.9593,49.25850733,-122.74678325,1.15999997,
3.1710,0.3877,0.0864,0.1184,-0.2937,-5.5196,1.1675,0.6211,0.9266,0.6429,49.25850733,-122.74678325,1.15999997,
3.1730,0.4782,0.1634,0.2048,-0.2937,-5.5196,1.1675,0.6211,0.9266,0.6429,49.25850733,-122.74678325,1.15999997,
3.1750,0.6063,0.1733,0.2582,-0.2937,-5.5196,1.1675,0.6211,0.9266,0.6429,49.25850733,-122.74678325,1.15999997,
3.1770,0.6063,0.1733,0.2582,-4.4487,-0.7074,1.1010,0.6211,0.9266,0.6429,49.25850733,-122.74678325,1.15999997,
3.2390,0.6063,0.1733,0.2582,-4.4487,-0.7074,1.1010,0.3635,1.2114,-0.2297,49.25850733,-122.74678325,1.15999997,
3.2450,0.7717,0.2789,0.0249,-4.4487,-0.7074,1.1010,0.3635,1.2114,-0.2297,49.25850733,-122.74678325,1.15999997,
3.2470,0.9375,0.3994,-0.1363,-4.4487,-0.7074,1.1010,0.3635,1.2114,-0.2297,49.25850733,-122.74678325,1.15999997,
3.2490,1.1189,0.5355,-0.5701,-4.4487,-0.7074,1.1010,0.3635,1.2114,-0.2297,49.25850733,-122.74678325,1.15999997,
3.2520,1.1189,0.5355,-0.5701,-4.7112,2.0042,1.1315,0.3635,1.2114,-0.2297,49.25850733,-122.74678325,1.15999997,
3.2540,1.0687,0.5030,-0.9011,-4.7112,2.0042,1.1315,0.3635,1.2114,-0.2297,49.25850733,-122.74678325,1.15999997,
3.3090,1.1245,0.5009,-0.8553,-4.7112,2.0042,1.1315,0.3635,1.2114,-0.2297,49.25850733,-122.74678325,1.15999997,
3.3140,1.1245,0.5009,-0.8553,-4.7112,2.0042,1.1315,-1.6840,-0.5495,-1.4828,49.25850733,-122.74678325,1.15999997,
3.3160,1.2520,0.4781,-0.7353,-4.7112,2.0042,1.1315,-1.6840,-0.5495,-1.4828,49.25850733,-122.74678325,1.15999997,
3.3180,1.3348,0.4348,-0.5557,-4.7112,2.0042,1.1315,-1.6840,-0.5495,-1.4828,49.25850733,-122.74678325,1.15999997,
3.3200,1.3348,0.4348,-0.5557,0.0445,3.8129,-4.3820,-1.6840,-0.5495,-1.4828,49.25850733,-122.74678325,1.15999997,
3.3620,1.2236,0.3791,-0.4783,0.0445,3.8129,-4.3820,-1.6840,-0.5495,-1.4828,49.25850733,-122.74678325,1.15999997,
3.3680,1.2267,0.2828,-0.5276,0.0445,3.8129,-4.3820,-1.6840,-0.5495,-1.4828,49.25850733,-122.74678325,1.15999997,
3.3760,1.2922,0.2841,-0.4843,0.0445,3.8129,-4.3820,-1.6840,-0.5495,-1.4828,49.25850733,-122.74678325,1.15999997,
3.3780,1.2922,0.2841,-0.4843,0.0445,3.8129,-4.3820,-2.2002,-1.5700,-1.6414,49.25850733,-122.74678325,1.15999997,
3.3890,1.2236,0.2296,-0.1739,0.0445,3.8129,-4.3820,-2.2002,-1.5700,-1.6414,49.25850733,-122.74678325,1.15999997,
3.3930,1.2236,0.2296,-0.1739,2.4784,2.5316,-5.6065,-2.2002,-1.5700,-1.6414,49.25850733,-122.74678325,1.15999997,
3.4430,1.3648,0.0148,0.1496,2.4784,2.5316,-5.6065,-2.2002,-1.5700,-1.6414,49.25850733,-122.74678325,1.15999997,
3.4460,1.3464,-0.1221,0.0916,2.4784,2.5316,-5.6065,-2.2002,-1.5700,-1.6414,49.25850733,-122.74678325,1.15999997,
3.4530,1.3464,-0.1221,0.0916,2.4784,2.5316,-5.6065,-0.8564,-1.5123,-1.3523,49.25850733,-122.74678325,1.15999997,
3.4610,1.3464,-0.1221,0.0916,2.7191,0.0049,-1.8488,-0.8564,-1.5123,-1.3523,49.25850733,-122.74678325,1.15999997,
3.4640,1.4030,-0.1358,0.0371,2.7191,0.0049,-1.8488,-0.8564,-1.5123,-1.3523,49.25850733,-122.74678325,1.15999997,
3.5090,1.1887,-0.2839,-0.0515,2.7191,0.0049,-1.8488,-0.8564,-1.5123,-1.3523,49.25850733,-122.74678325,1.15999997,
3.5140,0.7195,-0.4471,-0.2668,2.7191,0.0049,-1.8488,-0.8564,-1.5123,-1.3523,49.25850733,-122.74678325,1.15999997,
3.5200,0.7077,-0.3849,-0.4516,2.7191,0.0049,-1.8488,-0.8564,-1.5123,-1.3523,49.25850733,-122.74678325,1.15999997,
3.5230,0.7077,-0.3849,-0.4516,2.7191,0.0049,-1.8488,-0.1574,-0.7262,0.7853,49.25850733,-122.74678325,1.15999997,
3.5320,1.1686,-0.2441,-0.2013,2.7191,0.0049,-1.8488,-0.1574,-0.7262,0.7853,49.25850733,-122.74678325,1.15999997,
3.5340,1.1686,-0.2441,-0.2013,3.7019,-2.8680,3.2325,-0.1574,-0.7262,0.7853,49.25850733,-122.74678325,1.15999997,
3.5770,1.4787,0.0006,0.2725,3.7019,-2.8680,3.2325,-0.1574,-0.7262,0.7853,49.25850733,-122.74678325,1.15999997,
3.5810,1.3440,0.1199,0.0743,3.7019,-2.8680,3.2325,-0.1574,-0.7262,0.7853,49.25850733,-122.74678325,1.15999997,
3.5920,1.3440,0.1199,0.0743,3.7019,-2.8680,3.2325,-0.6531,1.2043,2.8327,49.25850733,-122.74678325,1.15999997,
3.6040,1.3440,0.1199,0.0743,-1.1524,-3.5266,-1.5368,-0.6531,1.2043,2.8327,49.25850733,-122.74678325,1.15999997,
3.6070,0.8448,0.0925,-0.1076,-1.1524,-3.5266,-1.5368,-0.6531,1.2043,2.8327,49.25850733,-122.74678325,1.15999997,
3.6430,0.6056,0.0280,-0.1237,-1.1524,-3.5266,-1.5368,-0.6531,1.2043,2.8327,49.25850733,-122.74678325,1.15999997,
3.6470,0.5440,0.0034,0.1388,-1.1524,-3.5266,-1.5368,-0.6531,1.2043,2.8327,49.25850733,-122.74678325,1.15999997,
3.6640,0.4990,0.0398,0.1180,-1.1524,-3.5266,-1.5368,-0.6531,1.2043,2.8327,49.25850733,-122.74678325,1.15999997,
3.6680,0.4990,0.0398,0.1180,-1.1524,-3.5266,-1.5368,-1.3687,2.3695,2.2389,49.25850733,-122.74678325,1.15999997,
3.6740,0.4990,0.0398,0.1180,1.1907,2.0851,0.0522,-1.3687,2.3695,2.2389,49.25850733,-122.74678325,1.15999997,
3.6760,0.4087,0.0886,-0.0741,1.1907,2.0851,0.0522,-1.3687,2.3695,2.2389,49.25850733,-122.74678325,1.15999997,
3.7110,0.3555,0.1131,-0.1949,1.1907,2.0851,0.0522,-1.3687,2.3695,2.2389,49.25850733,-122.74678325,1.15999997,
3.7360,0.4328,0.1596,-0.0556,1.1907,2.0851,0.0522,-1.3687,2.3695,2.2389,49.25850733,-122.74678325,1.15999997,
3.7400,0.4328,0.1596,-0.0556,1.1907,2.0851,0.0522,-1.5398,1.4964,1.8877,49.25850733,-122.74678325,1.15999997,
3.7430,0.5736,0.1113,0.0950,1.1907,2.0851,0.0522,-1.5398,1.4964,1.8877,49.25850733,-122.74678325,1.15999997,
3.7450,0.5736,0.1113,0.0950,-4.6365,3.1888,-0.4391,-1.5398,1.4964,1.8877,49.25850733,-122.74678325,1.15999997,
3.7750,0.5813,-0.0927,0.0450,-4.6365,3.1888,-0.4391,-1.5398,1.4964,1.8877,49.25850733,-122.74678325,1.15999997,
3.7780,0.8629,-0.2933,-0.1438,-4.6365,3.1888,-0.4391,-1.5398,1.4964,1.8877,49.25850733,-122.74678325,1.15999997,
3.8050,1.4702,-0.4182,0.3710,-4.6365,3.1888,-0.4391,-1.5398,1.4964,1.8877,49.25850733,-122.74678325,1.15999997,
3.8080,1.4702,-0.4182,0.3710,-4.6365,3.1888,-0.4391,0.4749,-1.8655,3.2466,49.25850733,-122.74678325,1.15999997,
3.8140,1.4702,-0.4182,0.3710,-3.9989,5.7676,-0.2294,0.4749,-1.8655,3.2466,49.25850733,-122.74678325,1.15999997,
3.8160,1.8507,-0.4594,-0.1544,-3.9989,5.7676,-0.2294,0.4749,-1.8655,3.2466,49.25850733,-122.74678325,1.15999997,
3.8410,1.5460,-0.4577,-0.2881,-3.9989,5.7676,-0.2294,0.4749,-1.8655,3.2466,49.25850733,-122.74678325,1.15999997,
3.8610,1.0649,-0.5911,-0.0469,-3.9989,5.7676,-0.2294,0.4749,-1.8655,3.2466,49.25850893,-122.74680104,1.37000000,
3.8770,1.0649,-0.5911,-0.0469,-3.9989,5.7676,-0.2294,1.2414,-0.4594,1.2304,49.25850893,-122.74680104,1.37000000,
3.8850,1.0649,-0.5911,-0.0469,4.2402,1.8832,0.1301,1.2414,-0.4594,1.2304,49.25850893,-122.74680104,1.37000000,
3.8890,1.0253,-0.6581,-0.0679,4.2402,1.8832,0.1301,1.2414,-0.4594,1.2304,49.25850893,-122.74680104,1.37000000,
3.9080,1.2637,-0.6834,0.1142,4.2402,1.8832,0.1301,1.2414,-0.4594,1.2304,49.25850893,-122.74680104,1.37000000,
3.9480,1.4427,-0.7087,0.2989,4.2402,1.8832,0.1301,1.2414,-0.4594,1.2304,49.25850893,-122.74680104,1.37000000,
3.9530,1.4427,-0.7087,0.2989,4.2402,1.8832,0.1301,1.3167,-0.2000,0.5752,49.25850893,-122.74680104,1.37000000,
3.9550,1.2400,-0.9497,0.3212,4.2402,1.8832,0.1301,1.3167,-0.2000,0.5752,49.25850893,-122.74680104,1.37000000,
3.9570,1.2400,-0.9497,0.3212,3.7219,-0.0858,-1.5093,1.3167,-0.2000,0.5752,49.25850893,-122.74680104,1.37000000,
3.9580,0.9696,-0.8168,0.2381,3.7219,-0.0858,-1.5093,1.3167,-0.2000,0.5752,49.25850893,-122.74680104,1.37000000,
3.9820,0.6326,-0.5517,0.3432,3.7219,-0.0858,-1.5093,1.3167,-0.2000,0.5752,49.25850893,-122.74680104,1.37000000,
4.0190,0.7195,-0.5272,0.2114,3.7219,-0.0858,-1.5093,1.3167,-0.2000,0.5752,49.25850893,-122.74680104,1.37000000,
4.0230,0.7195,-0.5272,0.2114,3.7219,-0.0858,-1.5093,-0.4803,-1.3720,-0.0924,49.25850893,-122.74680104,1.37000000,
4.0300,0.7195,-0.5272,0.2114,3.7717,-2.2952,3.3786,-0.4803,-1.3720,-0.0924,49.25850893,-122.74680104,1.37000000,
4.0330,1.0016,-0.5877,-0.0131,3.7717,-2.2952,3.3786,-0.4803,-1.3720,-0.0924,49.25850893,-122.74680104,1.37000000,
4.0410,0.9510,-0.6442,0.1832,3.7717,-2.2952,3.3786,-0.4803,-1.3720,-0.0924,49.25850893,-122.74680104,1.37000000,
4.0900,0.9510,-0.6442,0.1832,3.7717,-2.2952,3.3786,1.6382,-0.8075,1.3311,49.25850893,-122.74680104,1.37000000,
4.0950,0.6183,-0.6651,0.1731,3.7717,-2.2952,3.3786,1.6382,-0.8075,1.3311,49.25850893,-122.74680104,1.37000000,
4.0970,0.3017,-0.5895,0.0678,3.7717,-2.2952,3.3786,1.6382,-0.8075,1.3311,49.25850893,-122.74680104,1.37000000,
4.0990,0.2659,-0.4705,0.0559,3.7717,-2.2952,3.3786,1.6382,-0.8075,1.3311,49.25850893,-122.74680104,1.37000000,
4.1020,0.2659,-0.4705,0.0559,0.4610,1.0252,1.7772,1.6382,-0.8075,1.3311,49.25850893,-122.74680104,1.37000000,
4.1620,0.5806,-0.8885,-0.1976,0.4610,1.0252,1.7772,1.6382,-0.8075,1.3311,49.25850893,-122.74680104,1.37000000,
4.1680,0.5806,-0.8885,-0.1976,0.4610,1.0252,1.7772,1.4519,-0.9895,1.5771,49.25850893,-122.74680104,1.37000000,
4.1700,0.5188,-1.1041,-0.0530,0.4610,1.0252,1.7772,1.4519,-0.9895,1.5771,49.25850893,-122.74680104,1.37000000,
4.1730,0.0255,-0.6431,0.1246,0.4610,1.0252,1.7772,1.4519,-0.9895,1.5771,49.25850893,-122.74680104,1.37000000,
4.1740,0.0255,-0.6431,0.1246,-2.2906,1.4821,1.2112,1.4519,-0.9895,1.5771,49.25850893,-122.74680104,1.37000000,
4.2320,-0.0873,-0.2996,-0.0178,-2.2906,1.4821,1.2112,1.4519,-0.9895,1.5771,49.25850893,-122.74680104,1.37000000,
4.2370,-0.0873,-0.2996,-0.0178,-2.2906,1.4821,1.2112,0.3074,-0.8048,0.3082,49.25850893,-122.74680104,1.37000000,
4.2390,0.0872,-0.1959,-0.0445,-2.2906,1.4821,1.2112,0.3074,-0.8048,0.3082,49.25850893,-122.74680104,1.37000000,
4.2410,0.1824,-0.4038,-0.1055,-2.2906,1.4821,1.2112,0.3074,-0.8048,0.3082,49.25850893,-122.74680104,1.37000000,
4.2440,0.4171,-0.6124,-0.1741,-2.2906,1.4821,1.2112,0.3074,-0.8048,0.3082,49.25850893,-122.74680104,1.37000000,
4.2450,0.4171,-0.6124,-0.1741,-3.7240,-0.5561,-0.1001,0.3074,-0.8048,0.3082,49.25850893,-122.74680104,1.37000000,
4.3040,0.6914,-0.8146,-0.2856,-3.7240,-0.5561,-0.1001,0.3074,-0.8048,0.3082,49.25850893,-122.74680104,1.37000000,
4.3080,0.6914,-0.8146,-0.2856,-3.7240,-0.5561,-0.1001,0.6174,-1.1447,-0.2055,49.25850893,-122.74680104,1.37000000,
4.3100,1.1074,-0.7780,-0.2886,-3.7240,-0.5561,-0.1001,0.6174,-1.1447,-0.2055,49.25850893,-122.74680104,1.37000000,
4.3130,0.9668,-0.8939,-0.4778,-3.7240,-0.5561,-0.1001,0.6174,-1.1447,-0.2055,49.25850893,-122.74680104,1.37000000,
4.3140,0.9668,-0.8939,-0.4778,-4.8269,3.4587,-0.5202,0.6174,-1.1447,-0.2055,49.25850893,-122.74680104,1.37000000,
4.3630,0.7934,-1.0094,-0.0800,-4.8269,3.4587,-0.5202,0.6174,-1.1447,-0.2055,49.25850893,-122.74680104,1.37000000,
4.3670,0.9370,-1.0343,-0.4245,-4.8269,3.4587,-0.5202,0.6174,-1.1447,-0.2055,49.25850893,-122.74680104,1.37000000,
4.3750,1.1552,-1.0684,-0.6055,-4.8269,3.4587,-0.5202,0.6174,-1.1447,-0.2055,49.25850893,-122.74680104,1.37000000,
4.3780,1.1552,-1.0684,-0.6055,-4.8269,3.4587,-0.5202,0.2149,-0.4197,0.3350,49.25850893,-122.74680104,1.37000000,
4.3840,0.9024,-0.8238,-0.3147,-4.8269,3.4587,-0.5202,0.2149,-0.4197,0.3350,49.25850893,-122.74680104,1.37000000,
4.3860,0.9024,-0.8238,-0.3147,2.2541,-1.0464,-2.4379,0.2149,-0.4197,0.3350,49.25850893,-122.74680104,1.37000000,
4.4110,0.7285,-1.0242,-0.1542,2.2541,-1.0464,-2.4379,0.2149,-0.4197,0.3350,49.25850893,-122.74680104,1.37000000,
4.4440,0.7803,-1.1483,0.4868,2.2541,-1.0464,-2.4379,0.2149,-0.4197,0.3350,49.25850893,-122.74680104,1.37000000,
4.4480,0.7803,-1.1483,0.4868,2.2541,-1.0464,-2.4379,0.6343,0.7085,-0.2728,49.25850893,-122.74680104,1.37000000,
4.4540,0.7803,-1.1483,0.4868,2.8451,-2.2594,-4.0400,0.6343,0.7085,-0.2728,49.25850893,-122.74680104,1.37000000,
4.4580,0.7460,-1.1213,0.2241,2.8451,-2.2594,-4.0400,0.6343,0.7085,-0.2728,49.25850893,-122.74680104,1.37000000,
4.5110,0.5173,-0.9849,0.0481,2.8451,-2.2594,-4.0400,0.6343,0.7085,-0.2728,49.25850893,-122.74680104,1.37000000,
4.5140,0.3768,-0.7006,-0.1099,2.8451,-2.2594,-4.0400,0.6343,0.7085,-0.2728,49.25850893,-122.74680104,1.37000000,
4.5160,0.4358,-0.7461,0.6468,2.8451,-2.2594,-4.0400,0.6343,0.7085,-0.2728,49.25850893,-122.74680104,1.37000000,
4.5180,0.4358,-0.7461,0.6468,2.8451,-2.2594,-4.0400,0.0648,1.2762,0.0026,49.25850893,-122.74680104,1.37000000,
4.5250,0.4358,-0.7461,0.6468,0.3630,-3.3515,0.8263,0.0648,1.2762,0.0026,49.25850893,-122.74680104,1.37000000,
4.5270,0.6949,-1.0171,0.8720,0.3630,-3.3515,0.8263,0.0648,1.2762,0.0026,49.25850893,-122.74680104,1.37000000,
4.5750,0.9170,-0.9998,0.2304,0.3630,-3.3515,0.8263,0.0648,1.2762,0.0026,49.25850893,-122.74680104,1.37000000,
4.5790,0.8381,-0.8646,-0.0137,0.3630,-3.3515,0.8263,0.0648,1.2762,0.0026,49.25850893,-122.74680104,1.37000000,
4.5890,0.8381,-0.8646,-0.0137,0.3630,-3.3515,0.8263,-0.3348,0.4953,-1.3680,49.25850893,-122.74680104,1.37000000,
4.5970,0.8381,-0.8646,-0.0137,-2.5197,-1.5843,3.2869,-0.3348,0.4953,-1.3680,49.25850893,-122.74680104,1.37000000,
4.5990,0.5072,-0.6085,0.1579,-2.5197,-1.5843,3.2869,-0.3348,0.4953,-1.3680,49.25850893,-122.74680104,1.37000000,
4.6120,0.3498,-0.4061,0.1367,-2.5197,-1.5843,3.2869,-0.3348,0.4953,-1.3680,49.25850893,-122.74680104,1.37000000,
4.6440,0.2955,-0.3410,0.0515,-2.5197,-1.5843,3.2869,-0.3348,0.4953,-1.3680,49.25850893,-122.74680104,1.37000000,
4.6590,0.3624,-0.2791,0.0370,-2.5197,-1.5843,3.2869,-0.3348,0.4953,-1.3680,49.25850893,-122.74680104,1.37000000,
4.6630,0.3624,-0.2791,0.0370,-2.5197,-1.5843,3.2869,-0.6090,0.5823,-1.1196,49.25850893,-122.74680104,1.37000000,
4.6670,0.3624,-0.2791,0.0370,-0.9498,-1.3984,0.4374,-0.6090,0.5823,-1.1196,49.25850893,-122.74680104,1.37000000,
4.6690,0.4561,-0.3056,-0.0186,-0.9498,-1.3984,0.4374,-0.6090,0.5823,-1.1196,49.25850893,-122.74680104,1.37000000,
4.7110,0.5514,-0.3117,-0.0175,-0.9498,-1.3984,0.4374,-0.6090,0.5823,-1.1196,49.25850893,-122.74680104,1.37000000,
4.7150,0.6019,-0.3310,-0.0151,-0.9498,-1.3984,0.4374,-0.6090,0.5823,-1.1196,49.25850893,-122.74680104,1.37000000,
4.7280,0.6019,-0.3310,-0.0151,-0.9498,-1.3984,0.4374,-0.1564,0.2339,-0.0588,49.25850893,-122.74680104,1.37000000,
4.7390,0.6019,-0.3310,-0.0151,-4.1104,3.0267,-0.5533,-0.1564,0.2339,-0.0588,49.25850893,-122.74680104,1.37000000,
4.7420,0.6167,-0.3259,0.0023,-4.1104,3.0267,-0.5533,-0.1564,0.2339,-0.0588,49.25850893,-122.74680104,1.37000000,
4.7750,0.6374,-0.4177,0.0893,-4.1104,3.0267,-0.5533,-0.1564,0.2339,-0.0588,49.25850893,-122.74680104,1.37000000,
4.7770,0.7384,-0.4953,0.0882,-4.1104,3.0267,-0.5533,-0.1564,0.2339,-0.0588,49.25850893,-122.74680104,1.37000000,
4.8010,0.8583,-0.5895,0.0006,-4.1104,3.0267,-0.5533,-0.1564,0.2339,-0.0588,49.25850893,-122.74680104,1.37000000,
4.8040,0.8583,-0.5895,0.0006,-4.1104,3.0267,-0.5533,0.3164,0.1665,0.6145,49.25850893,-122.74680104,1.37000000,
4.8110,0.8583,-0.5895,0.0006,-1.4969,3.1940,-1.0105,0.3164,0.1665,0.6145,49.25850893,-122.74680104,1.37000000,
4.8130,0.9041,-0.6743,-0.0246,-1.4969,3.1940,-1.0105,0.3164,0.1665,0.6145,49.25850893,-122.74680104,1.37000000,
4.8410,1.0271,-0.7733,-0.1566,-1.4969,3.1940,-1.0105,0.3164,0.1665,0.6145,49.25850893,-122.74680104,1.37000000,
4.8620,1.0356,-0.6187,0.0225,-1.4969,3.1940,-1.0105,0.3164,0.1665,0.6145,49.25851323,-122.74681948,1.36000001,
4.8720,1.0356,-0.6187,0.0225,-1.4969,3.1940,-1.0105,-0.2984,-0.1821,0.5254,49.25851323,-122.74681948,1.36000001,
4.8820,1.0356,-0.6187,0.0225,0.7074,1.0844,-0.4681,-0.2984,-0.1821,0.5254,49.25851323,-122.74681948,1.36000001,
4.8850,1.0088,-0.7309,-0.0142,0.7074,1.0844,-0.4681,-0.2984,-0.1821,0.5254,49.25851323,-122.74681948,1.36000001,
4.9090,1.1173,-0.9514,-0.1551,0.7074,1.0844,-0.4681,-0.2984,-0.1821,0.5254,49.25851323,-122.74681948,1.36000001,
4.9420,1.3249,-0.9388,-0.0585,0.7074,1.0844,-0.4681,-0.2984,-0.1821,0.5254,49.25851323,-122.74681948,1.36000001,
4.9460,1.3249,-0.9388,-0.0585,0.7074,1.0844,-0.4681,-0.3689,-0.0097,-0.5383,49.25851323,-122.74681948,1.36000001,
4.9470,1.3519,-0.6807,0.1874,0.7074,1.0844,-0.4681,-0.3689,-0.0097,-0.5383,49.25851323,-122.74681948,1.36000001,
4.9520,1.1487,-0.7924,0.4030,0.7074,1.0844,-0.4681,-0.3689,-0.0097,-0.5383,49.25851323,-122.74681948,1.36000001,
4.9540,1.1487,-0.7924,0.4030,2.6139,-0.8514,-1.2398,-0.3689,-0.0097,-0.5383,49.25851323,-122.74681948,1.36000001,
4.9770,0.8464,-0.8985,0.4055,2.6139,-0.8514,-1.2398,-0.3689,-0.0097,-0.5383,49.25851323,-122.74681948,1.36000001,
5.0140,0.8464,-0.8985,0.4055,2.6139,-0.8514,-1.2398,-0.5087,0.3804,0.1866,49.25851323,-122.74681948,1.36000001,
5.0190,0.6106,-0.7483,0.4462,2.6139,-0.8514,-1.2398,-0.5087,0.3804,0.1866,49.25851323,-122.74681948,1.36000001,
5.0280,0.6106,-0.7483,0.4462,4.8916,-1.5614,0.6930,-0.5087,0.3804,0.1866,49.25851323,-122.74681948,1.36000001,
5.0330,0.5302,-0.8605,0.2778,4.8916,-1.5614,0.6930,-0.5087,0.3804,0.1866,49.25851323,-122.74681948,1.36000001,
5.0420,0.7165,-1.0623,0.0126,4.8916,-1.5614,0.6930,-0.5087,0.3804,0.1866,49.25851323,-122.74681948,1.36000001,
5.0850,0.8867,-1.0648,0.1971,4.8916,-1.5614,0.6930,-0.5087,0.3804,0.1866,49.25851323,-122.74681948,1.36000001,
5.0880,0.8867,-1.0648,0.1971,4.8916,-1.5614,0.6930,-0.1194,-0.7865,0.1267,49.25851323,-122.74681948,1.36000001,
5.0900,0.7545,-0.9408,0.2313,4.8916,-1.5614,0.6930,-0.1194,-0.7865,0.1267,49.25851323,-122.74681948,1.36000001,
5.0940,0.7545,-0.9408,0.2313,-0.9884,-1.8168,3.0209,-0.1194,-0.7865,0.1267,49.25851323,-122.74681948,1.36000001,
5.0960,0.7306,-0.8503,0.1373,-0.9884,-1.8168,3.0209,-0.1194,-0.7865,0.1267,49.25851323,-122.74681948,1.36000001,
5.1570,0.7149,-0.5850,-0.0639,-0.9884,-1.8168,3.0209,-0.1194,-0.7865,0.1267,49.25851323,-122.74681948,1.36000001,
5.1620,0.7149,-0.5850,-0.0639,-0.9884,-1.8168,3.0209,0.5598,0.0838,-0.3619,49.25851323,-122.74681948,1.36000001,
5.1640,0.6061,-0.4064,-0.0116,-0.9884,-1.8168,3.0209,0.5598,0.0838,-0.3619,49.25851323,-122.74681948,1.36000001,
5.1660,0.6061,-0.4064,-0.0116,0.1589,-3.1210,0.9762,0.5598,0.0838,-0.3619,49.25851323,-122.74681948,1.36000001,
5.1670,0.5158,-0.2864,0.0970,0.1589,-3.1210,0.9762,0.5598,0.0838,-0.3619,49.25851323,-122.74681948,1.36000001,
5.1760,0.4428,-0.2370,0.0403,0.1589,-3.1210,0.9762,0.5598,0.0838,-0.3619,49.25851323,-122.74681948,1.36000001,
5.2270,0.4428,-0.2370,0.0403,0.1589,-3.1210,0.9762,0.5660,-0.1295,-1.1599,49.25851323,-122.74681948,1.36000001,
5.2300,0.1808,-0.2859,0.0392,0.1589,-3.1210,0.9762,0.5660,-0.1295,-1.1599,49.25851323,-122.74681948,1.36000001,
5.2340,0.0250,-0.2861,-0.0396,0.1589,-3.1210,0.9762,0.5660,-0.1295,-1.1599,49.25851323,-122.74681948,1.36000001,
5.2390,0.0695,-0.2875,-0.0937,0.1589,-3.1210,0.9762,0.5660,-0.1295,-1.1599,49.25851323,-122.74681948,1.36000001,
5.2430,0.0695,-0.2875,-0.0937,-2.2660,1.8161,-0.4701,0.5660,-0.1295,-1.1599,49.25851323,-122.74681948,1.36000001,
5.2990,0.0695,-0.2875,-0.0937,-2.2660,1.8161,-0.4701,0.1594,-2.1679,0.0273,49.25851323,-122.74681948,1.36000001,
5.3030,0.1875,-0.3495,-0.1118,-2.2660,1.8161,-0.4701,0.1594,-2.1679,0.0273,49.25851323,-122.74681948,1.36000001,
5.3040,0.4350,-0.3981,-0.0167,-2.2660,1.8161,-0.4701,0.1594,-2.1679,0.0273,49.25851323,-122.74681948,1.36000001,
5.3060,0.7583,-0.4556,-0.0784,-2.2660,1.8161,-0.4701,0.1594,-2.1679,0.0273,49.25851323,-122.74681948,1.36000001,
5.3080,0.7583,-0.4556,-0.0784,-6.5916,3.0391,0.4259,0.1594,-2.1679,0.0273,49.25851323,-122.74681948,1.36000001,
5.3300,1.1168,-0.5563,-0.4496,-6.5916,3.0391,0.4259,0.1594,-2.1679,0.0273,49.25851323,-122.74681948,1.36000001,
5.3600,1.2833,-0.6592,-0.5888,-6.5916,3.0391,0.4259,0.1594,-2.1679,0.0273,49.25851323,-122.74681948,1.36000001,
5.3630,1.1589,-0.7797,-0.4225,-6.5916,3.0391,0.4259,0.1594,-2.1679,0.0273,49.25851323,-122.74681948,1.36000001,
5.3660,1.1589,-0.7797,-0.4225,-6.5916,3.0391,0.4259,-0.0577,-1.0789,-0.2347,49.25851323,-122.74681948,1.36000001,
5.3780,1.1589,-0.7797,-0.4225,-2.6158,1.4755,0.1055,-0.0577,-1.0789,-0.2347,49.25851323,-122.74681948,1.36000001,
5.3820,1.2679,-0.6724,-0.3081,-2.6158,1.4755,0.1055,-0.0577,-1.0789,-0.2347,49.25851323,-122.74681948,1.36000001,
5.4090,1.2264,-0.7038,-0.6204,-2.6158,1.4755,0.1055,-0.0577,-1.0789,-0.2347,49.25851323,-122.74681948,1.36000001,
5.4230,1.2364,-0.7231,-0.6547,-2.6158,1.4755,0.1055,-0.0577,-1.0789,-0.2347,49.25851323,-122.74681948,1.36000001,
5.4400,1.2364,-0.7231,-0.6547,-2.6158,1.4755,0.1055,-0.2926,-1.3740,-0.7610,49.25851323,-122.74681948,1.36000001,
5.4490,1.2364,-0.7231,-0.6547,3.8758,-1.7111,-2.3213,-0.2926,-1.3740,-0.7610,49.25851323,-122.74681948,1.36000001,
5.4510,1.1666,-0.7236,-0.2102,3.8758,-1.7111,-2.3213,-0.2926,-1.3740,-0.7610,49.25851323,-122.74681948,1.36000001,
5.4670,1.1532,-0.7240,0.0023,3.8758,-1.7111,-2.3213,-0.2926,-1.3740,-0.7610,49.25851323,-122.74681948,1.36000001,
5.5010,1.4038,-0.7405,-0.0300,3.8758,-1.7111,-2.3213,-0.2926,-1.3740,-0.7610,49.25851323,-122.74681948,1.36000001,
5.5040,1.6795,-0.6817,-0.2557,3.8758,-1.7111,-2.3213,-0.2926,-1.3740,-0.7610,49.25851323,-122.74681948,1.36000001,
5.5100,1.6795,-0.6817,-0.2557,3.8758,-1.7111,-2.3213,-0.1490,-1.1128,-1.3181,49.25851323,-122.74681948,1.36000001,
5.5200,1.6795,-0.6817,-0.2557,3.2039,-2.8696,-1.1945,-0.1490,-1.1128,-1.3181,49.25851323,-122.74681948,1.36000001,
5.5220,1.5182,-0.7212,-0.2379,3.2039,-2.8696,-1.1945,-0.1490,-1.1128,-1.3181,49.25851323,-122.74681948,1.36000001,
5.5460,0.9542,-0.5699,-0.0574,3.2039,-2.8696,-1.1945,-0.1490,-1.1128,-1.3181,49.25851323,-122.74681948,1.36000001,
5.5790,0.1759,-0.6234,0.1352,3.2039,-2.8696,-1.1945,-0.1490,-1.1128,-1.3181,49.25851323,-122.74681948,1.36000001,
5.5820,0.1759,-0.6234,0.1352,3.2039,-2.8696,-1.1945,-0.8912,0.0681,-2.0627,49.25851323,-122.74681948,1.36000001,
5.5840,0.3298,-0.4621,-0.0115,3.2039,-2.8696,-1.1945,-0.8912,0.0681,-2.0627,49.25851323,-122.74681948,1.36000001,
5.5910,0.3298,-0.4621,-0.0115,5.4426,-4.0894,1.4317,-0.8912,0.0681,-2.0627,49.25851323,-122.74681948,1.36000001,
5.6110,0.8172,-0.3386,0.0495,5.4426,-4.0894,1.4317,-0.8912,0.0681,-2.0627,49.25851323,-122.74681948,1.36000001,
5.6340,0.8880,-0.3070,-0.0664,5.4426,-4.0894,1.4317,-0.8912,0.0681,-2.0627,49.25851323,-122.74681948,1.36000001,
5.6520,0.4839,-0.1896,-0.1209,5.4426,-4.0894,1.4317,-0.8912,0.0681,-2.0627,49.25851323,-122.74681948,1.36000001,
5.6550,0.4839,-0.1896,-0.1209,5.4426,-4.0894,1.4317,-0.6637,1.6211,-0.7697,49.25851323,-122.74681948,1.36000001,
5.6620,0.0722,-0.1615,-0.3217,5.4426,-4.0894,1.4317,-0.6637,1.6211,-0.7697,49.25851323,-122.74681948,1.36000001,
5.6660,0.0722,-0.1615,-0.3217,-4.3855,-2.7916,2.0674,-0.6637,1.6211,-0.7697,49.25851323,-122.74681948,1.36000001,
5.7190,0.0214,-0.1180,-0.3641,-4.3855,-2.7916,2.0674,-0.6637,1.6211,-0.7697,49.25851323,-122.74681948,1.36000001,
5.7230,0.2125,-0.0408,-0.0210,-4.3855,-2.7916,2.0674,-0.6637,1.6211,-0.7697,49.25851323,-122.74681948,1.36000001,
5.7240,0.2125,-0.0408,-0.0210,-4.3855,-2.7916,2.0674,-1.3901,1.5637,-0.2394,49.25851323,-122.74681948,1.36000001,
5.7260,0.2645,-0.1147,0.3332,-4.3855,-2.7916,2.0674,-1.3901,1.5637,-0.2394,49.25851323,-122.74681948,1.36000001,
5.7330,0.2645,-0.1147,0.3332,-4.3065,-0.2294,-0.4087,-1.3901,1.5637,-0.2394,49.25851323,-122.74681948,1.36000001,
5.7460,0.3938,-0.1132,0.0993,-4.3065,-0.2294,-0.4087,-1.3901,1.5637,-0.2394,49.25851323,-122.74681948,1.36000001,
5.7940,0.3427,-0.2268,0.1195,-4.3065,-0.2294,-0.4087,-1.3901,1.5637,-0.2394,49.25851323,-122.74681948,1.36000001,
5.7950,0.3427,-0.2268,0.1195,-4.3065,-0.2294,-0.4087,0.9433,1.2176,-0.0337,49.25851323,-122.74681948,1.36000001,
5.7960,0.7190,0.0126,0.0181,-4.3065,-0.2294,-0.4087,0.9433,1.2176,-0.0337,49.25851323,-122.74681948,1.36000001,
5.8040,0.7190,0.0126,0.0181,-7.5357,1.2343,-0.0039,0.9433,1.2176,-0.0337,49.25851323,-122.74681948,1.36000001,
5.8080,0.7935,0.0528,-0.2102,-7.5357,1.2343,-0.0039,0.9433,1.2176,-0.0337,49.25851323,-122.74681948,1.36000001,
5.8300,0.9193,0.0624,-0.1286,-7.5357,1.2343,-0.0039,0.9433,1.2176,-0.0337,49.25851323,-122.74681948,1.36000001,
5.8610,0.9824,-0.0526,-0.2318,-7.5357,1.2343,-0.0039,0.9433,1.2176,-0.0337,49.25851323,-122.74681948,1.36000001,
5.8640,0.9824,-0.0526,-0.2318,-7.5357,1.2343,-0.0039,1.2192,1.2997,0.5965,49.25851323,-122.74681948,1.36000001,
5.8740,0.9824,-0.0526,-0.2318,-3.5608,1.9508,-1.1251,1.2192,1.2997,0.5965,49.25851323,-122.74681948,1.36000001,
5.8770,1.4788,-0.4533,-0.2702,-3.5608,1.9508,-1.1251,1.2192,1.2997,0.5965,49.25851323,-122.74681948,1.36000001,
5.8870,3.2775,-0.5295,0.0646,-3.5608,1.9508,-1.1251,1.2192,1.2997,0.5965,49.25851323,-122.74681948,1.36000001,
5.9180,1.3782,-0.1945,-0.0332,-3.5608,1.9508,-1.1251,1.2192,1.2997,0.5965,49.25851323,-122.74681948,1.36000001,
5.9370,1.4111,-0.2448,-0.2594,-3.5608,1.9508,-1.1251,1.2192,1.2997,0.5965,49.25851323,-122.74681948,1.36000001,
5.9400,1.4111,-0.2448,-0.2594,-3.5608,1.9508,-1.1251,-0.0933,-0.0221,0.0847,49.25851323,-122.74681948,1.36000001,
5.9470,1.4111,-0.2448,-0.2594,4.2089,0.3390,-2.4848,-0.0933,-0.0221,0.0847,49.25851323,-122.74681948,1.36000001,
5.9490,1.4471,-0.2592,-0.1974,4.2089,0.3390,-2.4848,-0.0933,-0.0221,0.0847,49.25851323,-122.74681948,1.36000001,
5.9680,1.3567,-0.1877,0.1852,4.2089,0.3390,-2.4848,-0.0933,-0.0221,0.0847,49.25851323,-122.74681948,1.36000001,
6.0010,1.2034,-0.3394,0.4424,4.2089,0.3390,-2.4848,-0.0933,-0.0221,0.0847,49.25851323,-122.74681948,1.36000001,
6.0080,1.2034,-0.3394,0.4424,4.2089,0.3390,-2.4848,-0.4663,-0.0715,-0.3403,49.25851323,-122.74681948,1.36000001,
6.0180,1.2034,-0.3394,0.4424,7.3337,-0.2700,-1.9899,-0.4663,-0.0715,-0.3403,49.25851323,-122.74681948,1.36000001,
6.0210,0.9765,-0.4516,0.4491,7.3337,-0.2700,-1.9899,-0.4663,-0.0715,-0.3403,49.25851323,-122.74681948,1.36000001,
6.0520,0.9055,-0.4170,0.4030,7.3337,-0.2700,-1.9899,-0.4663,-0.0715,-0.3403,49.25851323,-122.74681948,1.36000001,
6.0540,1.0993,-0.5315,0.2302,7.3337,-0.2700,-1.9899,-0.4663,-0.0715,-0.3403,49.25851323,-122.74681948,1.36000001,
6.0780,1.2973,-0.6552,0.0348,7.3337,-0.2700,-1.9899,-0.4663,-0.0715,-0.3403,49.25851323,-122.74681948,1.36000001,
6.0820,1.2973,-0.6552,0.0348,7.3337,-0.2700,-1.9899,-0.6083,-0.4051,-0.0559,49.25851323,-122.74681948,1.36000001,
6.0880,1.3070,-0.5708,0.2398,7.3337,-0.2700,-1.9899,-0.6083,-0.4051,-0.0559,49.25851323,-122.74681948,1.36000001,
6.0900,1.3070,-0.5708,0.2398,1.5359,-1.0111,3.2673,-0.6083,-0.4051,-0.0559,49.25851323,-122.74681948,1.36000001,
6.1110,1.1010,-0.3592,0.1710,1.5359,-1.0111,3.2673,-0.6083,-0.4051,-0.0559,49.25851323,-122.74681948,1.36000001,
6.1350,0.8862,-0.1832,0.0540,1.5359,-1.0111,3.2673,-0.6083,-0.4051,-0.0559,49.25851323,-122.74681948,1.36000001,
6.1500,0.8862,-0.1832,0.0540,1.5359,-1.0111,3.2673,-0.0613,-0.3551,0.1921,49.25851323,-122.74681948,1.36000001,
6.1590,0.8862,-0.1832,0.0540,2.0422,-2.9845,1.8058,-0.0613,-0.3551,0.1921,49.25851323,-122.74681948,1.36000001,
6.1620,0.7044,-0.0033,0.0848,2.0422,-2.9845,1.8058,-0.0613,-0.3551,0.1921,49.25851323,-122.74681948,1.36000001,
6.1710,0.5417,0.0103,0.0248,2.0422,-2.9845,1.8058,-0.0613,-0.3551,0.1921,49.25851323,-122.74681948,1.36000001,
6.2180,0.4552,-0.0429,0.0616,2.0422,-2.9845,1.8058,-0.0613,-0.3551,0.1921,49.25851323,-122.74681948,1.36000001,
6.2210,0.3752,-0.1318,0.1086,2.0422,-2.9845,1.8058,-0.0613,-0.3551,0.1921,49.25851323,-122.74681948,1.36000001,
6.2230,0.3752,-0.1318,0.1086,2.0422,-2.9845,1.8058,0.3492,0.4642,0.7040,49.25851323,-122.74681948,1.36000001,
6.2290,0.3752,-0.1318,0.1086,-1.1328,1.4686,0.2657,0.3492,0.4642,0.7040,49.25851323,-122.74681948,1.36000001,
6.2320,0.3360,-0.1676,0.0777,-1.1328,1.4686,0.2657,0.3492,0.4642,0.7040,49.25851323,-122.74681948,1.36000001,
6.2510,0.3393,-0.1959,0.0566,-1.1328,1.4686,0.2657,0.3492,0.4642,0.7040,49.25851323,-122.74681948,1.36000001,
6.2920,0.4482,-0.2244,-0.0016,-1.1328,1.4686,0.2657,0.3492,0.4642,0.7040,49.25851323,-122.74681948,1.36000001,
6.2940,0.4482,-0.2244,-0.0016,-1.1328,1.4686,0.2657,0.7207,0.4223,0.4218,49.25851323,-122.74681948,1.36000001,
6.3040,0.6040,-0.2455,-0.0647,-1.1328,1.4686,0.2657,0.7207,0.4223,0.4218,49.25851323,-122.74681948,1.36000001,
6.3070,0.6040,-0.2455,-0.0647,-5.2355,2.1855,-0.2672,0.7207,0.4223,0.4218,49.25851323,-122.74681948,1.36000001,
6.3360,0.7795,-0.2398,-0.1673,-5.2355,2.1855,-0.2672,0.7207,0.4223,0.4218,49.25851323,-122.74681948,1.36000001,
6.3390,1.0311,-0.1692,-0.2437,-5.2355,2.1855,-0.2672,0.7207,0.4223,0.4218,49.25851323,-122.74681948,1.36000001,
6.3610,1.2646,-0.0778,-0.2282,-5.2355,2.1855,-0.2672,0.7207,0.4223,0.4218,49.25851323,-122.74681948,1.36000001,
6.3650,1.2646,-0.0778,-0.2282,-5.2355,2.1855,-0.2672,0.5548,-0.2450,-0.1790,49.25851323,-122.74681948,1.36000001,
6.3720,1.1753,-0.2813,-0.1732,-5.2355,2.1855,-0.2672,0.5548,-0.2450,-0.1790,49.25851323,-122.74681948,1.36000001,
6.3750,1.1753,-0.2813,-0.1732,-4.3236,0.7142,-1.1851,0.5548,-0.2450,-0.1790,49.25851323,-122.74681948,1.36000001,
6.4100,1.2077,-0.6271,0.0224,-4.3236,0.7142,-1.1851,0.5548,-0.2450,-0.1790,49.25851323,-122.74681948,1.36000001,
6.4180,1.5332,-0.8213,-0.1938,-4.3236,0.7142,-1.1851,0.5548,-0.2450,-0.1790,49.25851323,-122.74681948,1.36000001,
6.4330,1.5332,-0.8213,-0.1938,-4.3236,0.7142,-1.1851,0.0996,0.7029,-0.2007,49.25851323,-122.74681948,1.36000001,
6.4430,1.5332,-0.8213,-0.1938,1.6082,0.9633,-3.3703,0.0996,0.7029,-0.2007,49.25851323,-122.74681948,1.36000001,
6.4460,1.3049,-0.2312,-0.2514,1.6082,0.9633,-3.3703,0.0996,0.7029,-0.2007,49.25851323,-122.74681948,1.36000001,
6.4690,1.2620,-0.2998,-0.0191,1.6082,0.9633,-3.3703,0.0996,0.7029,-0.2007,49.25851323,-122.74681948,1.36000001,
6.5030,1.3446,-0.7226,0.2627,1.6082,0.9633,-3.3703,0.0996,0.7029,-0.2007,49.25851323,-122.74681948,1.36000001,
6.5070,1.1942,-1.0153,0.4202,1.6082,0.9633,-3.3703,0.0996,0.7029,-0.2007,49.25851323,-122.74681948,1.36000001,
6.5110,1.1942,-1.0153,0.4202,1.6082,0.9633,-3.3703,-0.7692,1.3795,-0.1602,49.25851323,-122.74681948,1.36000001,
6.5150,1.1942,-1.0153,0.4202,3.8220,-2.1042,-3.3463,-0.7692,1.3795,-0.1602,49.25851323,-122.74681948,1.36000001,
6.5180,1.1762,-0.5174,0.4246,3.8220,-2.1042,-3.3463,-0.7692,1.3795,-0.1602,49.25851323,-122.74681948,1.36000001,
6.5500,0.7798,-0.2703,0.2834,3.8220,-2.1042,-3.3463,-0.7692,1.3795,-0.1602,49.25851323,-122.74681948,1.36000001,
6.5760,0.7798,-0.2703,0.2834,3.8220,-2.1042,-3.3463,-0.9446,-0.1232,-0.6819,49.25851323,-122.74681948,1.36000001,
6.5790,0.9405,-0.4560,0.8487,3.8220,-2.1042,-3.3463,-0.9446,-0.1232,-0.6819,49.25851323,-122.74681948,1.36000001,
6.5810,1.3191,-0.5052,0.9917,3.8220,-2.1042,-3.3463,-0.9446,-0.1232,-0.6819,49.25851323,-122.74681948,1.36000001,
6.5850,1.3191,-0.5052,0.9917,2.8970,-4.3966,1.2941,-0.9446,-0.1232,-0.6819,49.25851323,-122.74681948,1.36000001,
6.6110,1.3847,-0.2658,0.5122,2.8970,-4.3966,1.2941,-0.9446,-0.1232,-0.6819,49.25851323,-122.74681948,1.36000001,
6.6180,0.9201,-0.0840,0.1684,2.8970,-4.3966,1.2941,-0.9446,-0.1232,-0.6819,49.25851323,-122.74681948,1.36000001,
6.6460,0.5795,-0.1735,0.1510,2.8970,-4.3966,1.2941,-0.9446,-0.1232,-0.6819,49.25851323,-122.74681948,1.36000001,
6.6490,0.5795,-0.1735,0.1510,2.8970,-4.3966,1.2941,-0.2579,-0.4244,-0.8449,49.25851323,-122.74681948,1.36000001,
6.6570,0.5795,-0.1735,0.1510,0.9227,-1.9183,5.3046,-0.2579,-0.4244,-0.8449,49.25851323,-122.74681948,1.36000001,
6.6600,0.3879,-0.2532,0.1030,0.9227,-1.9183,5.3046,-0.2579,-0.4244,-0.8449,49.25851323,-122.74681948,1.36000001,
6.7020,0.2764,-0.2354,0.0098,0.9227,-1.9183,5.3046,-0.2579,-0.4244,-0.8449,49.25851323,-122.74681948,1.36000001,
6.7050,0.2943,-0.1142,-0.0016,0.9227,-1.9183,5.3046,-0.2579,-0.4244,-0.8449,49.25851323,-122.74681948,1.36000001,
6.7180,0.2943,-0.1142,-0.0016,0.9227,-1.9183,5.3046,-0.5271,0.1360,-0.5499,49.25851323,-122.74681948,1.36000001,
6.7270,0.2943,-0.1142,-0.0016,-2.4339,0.0813,0.1445,-0.5271,0.1360,-0.5499,49.25851323,-122.74681948,1.36000001,
6.7310,0.3519,0.0012,0.0237,-2.4339,0.0813,0.1445,-0.5271,0.1360,-0.5499,49.25851323,-122.74681948,1.36000001,
6.7550,0.4566,0.0211,0.0188,-2.4339,0.0813,0.1445,-0.5271,0.1360,-0.5499,49.25851323,-122.74681948,1.36000001,
6.7880,0.5603,-0.0083,0.0646,-2.4339,0.0813,0.1445,-0.5271,0.1360,-0.5499,49.25851323,-122.74681948,1.36000001,
6.7900,0.7348,0.1145,0.0504,-2.4339,0.0813,0.1445,-0.5271,0.1360,-0.5499,49.25851323,-122.74681948,1.36000001,
6.7920,0.7348,0.1145,0.0504,-2.4339,0.0813,0.1445,-0.2466,0.2071,0.1344,49.25851323,-122.74681948,1.36000001,
6.7980,0.7348,0.1145,0.0504,-6.2731,0.9880,-1.5928,-0.2466,0.2071,0.1344,49.25851323,-122.74681948,1.36000001,
6.8000,0.9295,0.1374,0.0564,-6.2731,0.9880,-1.5928,-0.2466,0.2071,0.1344,49.25851323,-122.74681948,1.36000001,
6.8320,1.0562,0.1253,0.1287,-6.2731,0.9880,-1.5928,-0.2466,0.2071,0.1344,49.25851323,-122.74681948,1.36000001,
6.8610,1.0562,0.1253,0.1287,-6.2731,0.9880,-1.5928,0.5221,-0.1647,0.6109,49.25850566,-122.74684603,1.15999997,
6.8640,1.1539,0.0237,0.1605,-6.2731,0.9880,-1.5928,0.5221,-0.1647,0.6109,49.25850566,-122.74684603,1.15999997,
6.8660,1.2518,-0.0916,0.0816,-6.2731,0.9880,-1.5928,0.5221,-0.1647,0.6109,49.25850566,-122.74684603,1.15999997,
6.8700,1.2518,-0.0916,0.0816,-2.4010,2.9025,-1.0315,0.5221,-0.1647,0.6109,49.25850566,-122.74684603,1.15999997,
6.9190,1.3219,-0.1612,-0.0442,-2.4010,2.9025,-1.0315,0.5221,-0.1647,0.6109,49.25850566,-122.74684603,1.15999997,
6.9230,1.2766,-0.1259,0.0555,-2.4010,2.9025,-1.0315,0.5221,-0.1647,0.6109,49.25850566,-122.74684603,1.15999997,
6.9240,1.2361,-0.0633,0.0183,-2.4010,2.9025,-1.0315,0.5221,-0.1647,0.6109,49.25850566,-122.74684603,1.15999997,
6.9290,1.2361,-0.0633,0.0183,-2.4010,2.9025,-1.0315,0.3280,-0.4666,0.1904,49.25850566,-122.74684603,1.15999997,
6.9430,1.2361,-0.0633,0.0183,2.1118,2.1868,-0.2436,0.3280,-0.4666,0.1904,49.25850566,-122.74684603,1.15999997,
6.9460,1.3376,-0.1876,-0.1910,2.1118,2.1868,-0.2436,0.3280,-0.4666,0.1904,49.25850566,-122.74684603,1.15999997,
7.0020,1.3400,-0.1196,-0.1320,2.1118,2.1868,-0.2436,0.3280,-0.4666,0.1904,49.25850566,-122.74684603,1.15999997,
7.0060,1.3400,-0.1196,-0.1320,2.1118,2.1868,-0.2436,-0.0760,-0.2717,-0.4526,49.25850566,-122.74684603,1.15999997,
7.0080,1.3012,0.0655,0.3147,2.1118,2.1868,-0.2436,-0.0760,-0.2717,-0.4526,49.25850566,-122.74684603,1.15999997,
7.0100,1.1470,0.1159,0.5960,2.1118,2.1868,-0.2436,-0.0760,-0.2717,-0.4526,49.25850566,-122.74684603,1.15999997,
7.0150,1.1470,0.1159,0.5960,3.1245,0.5671,-1.5953,-0.0760,-0.2717,-0.4526,49.25850566,-122.74684603,1.15999997,
7.0340,1.0177,-0.2895,0.4815,3.1245,0.5671,-1.5953,-0.0760,-0.2717,-0.4526,49.25850566,-122.74684603,1.15999997,
7.0740,1.1296,-0.4323,0.5171,3.1245,0.5671,-1.5953,-0.0760,-0.2717,-0.4526,49.25850566,-122.74684603,1.15999997,
7.0770,1.1296,-0.4323,0.5171,3.1245,0.5671,-1.5953,0.4406,0.0967,-0.0170,49.25850566,-122.74684603,1.15999997,
7.0780,1.4085,-0.4903,0.4501,3.1245,0.5671,-1.5953,0.4406,0.0967,-0.0170,49.25850566,-122.74684603,1.15999997,
7.0840,1.4085,-0.4903,0.4501,2.4830,1.7263,1.7761,0.4406,0.0967,-0.0170,49.25850566,-122.74684603,1.15999997,
7.0860,1.6313,-0.6479,0.2824,2.4830,1.7263,1.7761,0.4406,0.0967,-0.0170,49.25850566,-122.74684603,1.15999997,
7.1110,1.4561,-0.5767,0.4607,2.4830,1.7263,1.7761,0.4406,0.0967,-0.0170,49.25850566,-122.74684603,1.15999997,
7.1440,1.4561,-0.5767,0.4607,2.4830,1.7263,1.7761,0.4609,-0.7927,0.5031,49.25850566,-122.74684603,1.15999997,
7.1470,1.1553,-0.4732,0.3068,2.4830,1.7263,1.7761,0.4609,-0.7927,0.5031,49.25850566,-122.74684603,1.15999997,
7.1540,0.8760,-0.2651,0.1639,2.4830,1.7263,1.7761,0.4609,-0.7927,0.5031,49.25850566,-122.74684603,1.15999997,
7.1570,0.8760,-0.2651,0.1639,3.4611,-2.6556,3.2714,0.4609,-0.7927,0.5031,49.25850566,-122.74684603,1.15999997,
7.1710,0.6539,-0.0658,0.1687,3.4611,-2.6556,3.2714,0.4609,-0.7927,0.5031,49.25850566,-122.74684603,1.15999997,
7.2050,0.4440,-0.0028,0.1445,3.4611,-2.6556,3.2714,0.4609,-0.7927,0.5031,49.25850566,-122.74684603,1.15999997,
7.2090,0.3223,-0.0489,0.1063,3.4611,-2.6556,3.2714,0.4609,-0.7927,0.5031,49.25850566,-122.74684603,1.15999997,
7.2160,0.3223,-0.0489,0.1063,3.4611,-2.6556,3.2714,0.7142,-0.5667,0.6085,49.25850566,-122.74684603,1.15999997,
7.2280,0.3223,-0.0489,0.1063,1.2091,-1.1761,2.2355,0.7142,-0.5667,0.6085,49.25850566,-122.74684603,1.15999997,
7.2320,0.2740,-0.0759,0.0417,1.2091,-1.1761,2.2355,0.7142,-0.5667,0.6085,49.25850566,-122.74684603,1.15999997,
7.2510,0.2272,-0.0632,0.1187,1.2091,-1.1761,2.2355,0.7142,-0.5667,0.6085,49.25850566,-122.74684603,1.15999997,
7.2860,0.2272,-0.0632,0.1187,1.2091,-1.1761,2.2355,0.6731,0.1050,0.4635,49.25850566,-122.74684603,1.15999997,
7.2890,0.2179,-0.0572,0.1306,1.2091,-1.1761,2.2355,0.6731,0.1050,0.4635,49.25850566,-122.74684603,1.15999997,
7.2910,0.2949,-0.1219,0.0700,1.2091,-1.1761,2.2355,0.6731,0.1050,0.4635,49.25850566,-122.74684603,1.15999997,
7.2960,0.2949,-0.1219,0.0700,-5.6115,2.4404,0.1552,0.6731,0.1050,0.4635,49.25850566,-122.74684603,1.15999997,
7.3380,0.4668,-0.2660,0.0151,-5.6115,2.4404,0.1552,0.6731,0.1050,0.4635,49.25850566,-122.74684603,1.15999997,
7.3400,0.7065,-0.3128,-0.1072,-5.6115,2.4404,0.1552,0.6731,0.1050,0.4635,49.25850566,-122.74684603,1.15999997,
7.3590,0.7065,-0.3128,-0.1072,-5.6115,2.4404,0.1552,0.3876,-0.2698,-0.0722,49.25850566,-122.74684603,1.15999997,
7.3620,1.0489,-0.2590,-0.2874,-5.6115,2.4404,0.1552,0.3876,-0.2698,-0.0722,49.25850566,-122.74684603,1.15999997,
7.3680,1.0489,-0.2590,-0.2874,-6.6363,1.7034,0.2500,0.3876,-0.2698,-0.0722,49.25850566,-122.74684603,1.15999997,
7.3700,1.2696,-0.2337,-0.3180,-6.6363,1.7034,0.2500,0.3876,-0.2698,-0.0722,49.25850566,-122.74684603,1.15999997,
7.4100,1.2109,-0.4594,-0.1659,-6.6363,1.7034,0.2500,0.3876,-0.2698,-0.0722,49.25850566,-122.74684603,1.15999997,
7.4130,1.3975,-0.5414,-0.0120,-6.6363,1.7034,0.2500,0.3876,-0.2698,-0.0722,49.25850566,-122.74684603,1.15999997,
7.4280,1.3975,-0.5414,-0.0120,-6.6363,1.7034,0.2500,0.0355,0.4940,-0.0460,49.25850566,-122.74684603,1.15999997,
7.4390,1.3975,-0.5414,-0.0120,-0.0893,0.0113,-2.9418,0.0355,0.4940,-0.0460,49.25850566,-122.74684603,1.15999997,
7.4410,1.6347,-0.3614,-0.2786,-0.0893,0.0113,-2.9418,0.0355,0.4940,-0.0460,49.25850566,-122.74684603,1.15999997,
7.4490,1.3811,-0.0048,-0.2833,-0.0893,0.0113,-2.9418,0.0355,0.4940,-0.0460,49.25850566,-122.74684603,1.15999997,
7.4980,1.2212,-0.1366,-0.2384,-0.0893,0.0113,-2.9418,0.0355,0.4940,-0.0460,49.25850566,-122.74684603,1.15999997,
7.5010,1.2212,-0.1366,-0.2384,-0.0893,0.0113,-2.9418,-0.2998,0.0722,-0.2313,49.25850566,-122.74684603,1.15999997,
7.5030,1.3728,-0.5191,0.2693,-0.0893,0.0113,-2.9418,-0.2998,0.0722,-0.2313,49.25850566,-122.74684603,1.15999997,
7.5120,1.3728,-0.5191,0.2693,4.5494,-1.2394,-2.9517,-0.2998,0.0722,-0.2313,49.25850566,-122.74684603,1.15999997,
7.5150,1.3640,-0.8212,0.7246,4.5494,-1.2394,-2.9517,-0.2998,0.0722,-0.2313,49.25850566,-122.74684603,1.15999997,
7.5330,0.7872,-0.5762,0.3569,4.5494,-1.2394,-2.9517,-0.2998,0.0722,-0.2313,49.25850566,-122.74684603,1.15999997,
7.5700,0.7538,-0.4676,0.1590,4.5494,-1.2394,-2.9517,-0.2998,0.0722,-0.2313,49.25850566,-122.74684603,1.15999997,
7.5730,0.7538,-0.4676,0.1590,4.5494,-1.2394,-2.9517,-0.7380,0.7833,0.0782,49.25850566,-122.74684603,1.15999997,
7.5800,0.7538,-0.4676,0.1590,3.5572,-1.4566,0.4559,-0.7380,0.7833,0.0782,49.25850566,-122.74684603,1.15999997,
7.5830,0.9959,-0.4107,0.4636,3.5572,-1.4566,0.4559,-0.7380,0.7833,0.0782,49.25850566,-122.74684603,1.15999997,
7.6120,1.2012,-0.4964,1.0096,3.5572,-1.4566,0.4559,-0.7380,0.7833,0.0782,49.25850566,-122.74684603,1.15999997,
7.6140,1.4140,-0.1907,0.5157,3.5572,-1.4566,0.4559,-0.7380,0.7833,0.0782,49.25850566,-122.74684603,1.15999997,
7.6420,1.2602,-0.0793,0.0777,3.5572,-1.4566,0.4559,-0.7380,0.7833,0.0782,49.25850566,-122.74684603,1.15999997,
7.6450,1.2602,-0.0793,0.0777,3.5572,-1.4566,0.4559,-0.1847,-0.3419,-0.9650,49.25850566,-122.74684603,1.15999997,
7.6520,1.2602,-0.0793,0.0777,-0.8476,-2.7170,3.0443,-0.1847,-0.3419,-0.9650,49.25850566,-122.74684603,1.15999997,
7.6540,0.8019,-0.2486,0.0969,-0.8476,-2.7170,3.0443,-0.1847,-0.3419,-0.9650,49.25850566,-122.74684603,1.15999997,
7.6740,0.5418,-0.2820,0.1941,-0.8476,-2.7170,3.0443,-0.1847,-0.3419,-0.9650,49.25850566,-122.74684603,1.15999997,
7.7050,0.4016,-0.2756,0.1908,-0.8476,-2.7170,3.0443,-0.1847,-0.3419,-0.9650,49.25850566,-122.74684603,1.15999997,
7.7120,0.4016,-0.2756,0.1908,-0.8476,-2.7170,3.0443,-0.8077,-0.0110,-0.7474,49.25850566,-122.74684603,1.15999997,
7.7230,0.4016,-0.2756,0.1908,1.8156,-0.4361,2.3017,-0.8077,-0.0110,-0.7474,49.25850566,-122.74684603,1.15999997,
7.7250,0.3798,-0.2150,0.1364,1.8156,-0.4361,2.3017,-0.8077,-0.0110,-0.7474,49.25850566,-122.74684603,1.15999997,
7.7570,0.4411,-0.1009,0.0233,1.8156,-0.4361,2.3017,-0.8077,-0.0110,-0.7474,49.25850566,-122.74684603,1.15999997,
7.7590,0.4914,0.0009,-0.0407,1.8156,-0.4361,2.3017,-0.8077,-0.0110,-0.7474,49.25850566,-122.74684603,1.15999997,
7.7840,0.4953,0.0231,-0.0010,1.8156,-0.4361,2.3017,-0.8077,-0.0110,-0.7474,49.25850566,-122.74684603,1.15999997,
7.7860,0.4953,0.0231,-0.0010,1.8156,-0.4361,2.3017,-0.6633,0.0949,-0.1325,49.25850566,-122.74684603,1.15999997,
7.7960,0.4953,0.0231,-0.0010,-5.2786,-0.6365,0.4585,-0.6633,0.0949,-0.1325,49.25850566,-122.74684603,1.15999997,
7.8000,0.5276,0.0642,0.0704,-5.2786,-0.6365,0.4585,-0.6633,0.0949,-0.1325,49.25850566,-122.74684603,1.15999997,
7.8310,0.6548,0.1096,0.0663,-5.2786,-0.6365,0.4585,-0.6633,0.0949,-0.1325,49.25850566,-122.74684603,1.15999997,
7.8550,0.8846,0.0417,0.0268,-5.2786,-0.6365,0.4585,-0.6633,0.0949,-0.1325,49.25850083,-122.74685972,1.07000005,
7.8570,0.8846,0.0417,0.0268,-5.2786,-0.6365,0.4585,0.0200,0.2532,0.4192,49.25850083,-122.74685972,1.07000005,
7.8610,1.0793,-0.0072,-0.0419,-5.2786,-0.6365,0.4585,0.0200,0.2532,0.4192,49.25850083,-122.74685972,1.07000005,
7.8640,1.0793,-0.0072,-0.0419,-4.5494,2.1241,-1.1443,0.0200,0.2532,0.4192,49.25850083,-122.74685972,1.07000005,
7.9250,1.2297,-0.1192,-0.1542,-4.5494,2.1241,-1.1443,0.0200,0.2532,0.4192,49.25850083,-122.74685972,1.07000005,
7.9270,1.2313,-0.0087,-0.0482,-4.5494,2.1241,-1.1443,0.0200,0.2532,0.4192,49.25850083,-122.74685972,1.07000005,
7.9290,1.2861,0.1305,0.1522,-4.5494,2.1241,-1.1443,0.0200,0.2532,0.4192,49.25850083,-122.74685972,1.07000005,
7.9310,1.2861,0.1305,0.1522,-4.5494,2.1241,-1.1443,0.0280,-0.0605,0.3289,49.25850083,-122.74685972,1.07000005,
7.9360,1.2861,0.1305,0.1522,-0.3585,2.3431,-1.1722,0.0280,-0.0605,0.3289,49.25850083,-122.74685972,1.07000005,
7.9380,1.3739,0.0167,-0.0456,-0.3585,2.3431,-1.1722,0.0280,-0.0605,0.3289,49.25850083,-122.74685972,1.07000005,
7.9830,1.5330,-0.2366,-0.2645,-0.3585,2.3431,-1.1722,0.0280,-0.0605,0.3289,49.25850083,-122.74685972,1.07000005,
7.9850,1.5198,-0.2467,-0.0401,-0.3585,2.3431,-1.1722,0.0280,-0.0605,0.3289,49.25850083,-122.74685972,1.07000005,
7.9970,1.5198,-0.2467,-0.0401,-0.3585,2.3431,-1.1722,0.0927,-0.3466,-0.4062,49.25850083,-122.74685972,1.07000005,
8.0010,1.4806,-0.0768,0.2778,-0.3585,2.3431,-1.1722,0.0927,-0.3466,-0.4062,49.25850083,-122.74685972,1.07000005,
8.0070,1.4806,-0.0768,0.2778,3.1007,1.9428,-1.0023,0.0927,-0.3466,-0.4062,49.25850083,-122.74685972,1.07000005,
8.0400,1.2159,-0.0947,0.5969,3.1007,1.9428,-1.0023,0.0927,-0.3466,-0.4062,49.25850083,-122.74685972,1.07000005,
8.0430,1.1219,-0.3780,0.4276,3.1007,1.9428,-1.0023,0.0927,-0.3466,-0.4062,49.25850083,-122.74685972,1.07000005,
8.0680,1.1461,-0.6197,0.3260,3.1007,1.9428,-1.0023,0.0927,-0.3466,-0.4062,49.25850083,-122.74685972,1.07000005,
8.0710,1.1461,-0.6197,0.3260,3.1007,1.9428,-1.0023,-0.2655,-0.1551,-0.2598,49.25850083,-122.74685972,1.07000005,
8.0780,1.1461,-0.6197,0.3260,4.8073,-0.0418,0.0008,-0.2655,-0.1551,-0.2598,49.25850083,-122.74685972,1.07000005,
8.0800,1.3099,-0.5997,0.2855,4.8073,-0.0418,0.0008,-0.2655,-0.1551,-0.2598,49.25850083,-122.74685972,1.07000005,
8.1120,1.3975,-0.5138,0.2890,4.8073,-0.0418,0.0008,-0.2655,-0.1551,-0.2598,49.25850083,-122.74685972,1.07000005,
8.1230,1.2018,-0.3744,0.2107,4.8073,-0.0418,0.0008,-0.2655,-0.1551,-0.2598,49.25850083,-122.74685972,1.07000005,
8.1400,1.2018,-0.3744,0.2107,4.8073,-0.0418,0.0008,0.0288,-0.6536,0.1809,49.25850083,-122.74685972,1.07000005,
8.1490,1.2018,-0.3744,0.2107,1.9799,-2.7885,3.4120,0.0288,-0.6536,0.1809,49.25850083,-122.74685972,1.07000005,
8.1520,0.9287,-0.2502,0.1105,1.9799,-2.7885,3.4120,0.0288,-0.6536,0.1809,49.25850083,-122.74685972,1.07000005,
8.1730,0.7016,-0.1186,0.1281,1.9799,-2.7885,3.4120,0.0288,-0.6536,0.1809,49.25850083,-122.74685972,1.07000005,
8.2090,0.5379,0.0037,0.1506,1.9799,-2.7885,3.4120,0.0288,-0.6536,0.1809,49.25850083,-122.74685972,1.07000005,
8.2130,0.4036,0.0242,0.1030,1.9799,-2.7885,3.4120,0.0288,-0.6536,0.1809,49.25850083,-122.74685972,1.07000005,
8.2140,0.4036,0.0242,0.1030,1.9799,-2.7885,3.4120,0.5653,-0.3505,0.6343,49.25850083,-122.74685972,1.07000005,
8.2210,0.4036,0.0242,0.1030,1.3275,-1.0864,1.6143,0.5653,-0.3505,0.6343,49.25850083,-122.74685972,1.07000005,
8.2230,0.3404,-0.0064,0.0895,1.3275,-1.0864,1.6143,0.5653,-0.3505,0.6343,49.25850083,-122.74685972,1.07000005,
8.2510,0.2756,-0.0592,0.0370,1.3275,-1.0864,1.6143,0.5653,-0.3505,0.6343,49.25850083,-122.74685972,1.07000005,
8.2810,0.2756,-0.0592,0.0370,1.3275,-1.0864,1.6143,0.6631,0.0122,0.6877,49.25850083,-122.74685972,1.07000005,
8.2840,0.2868,-0.1649,0.0529,1.3275,-1.0864,1.6143,0.6631,0.0122,0.6877,49.25850083,-122.74685972,1.07000005,
8.2860,0.3580,-0.2348,0.0501,1.3275,-1.0864,1.6143,0.6631,0.0122,0.6877,49.25850083,-122.74685972,1.07000005,
8.2910,0.3580,-0.2348,0.0501,-4.9087,2.6331,0.6973,0.6631,0.0122,0.6877,49.25850083,-122.74685972,1.07000005,
8.3390,0.4290,-0.2340,-0.0066,-4.9087,2.6331,0.6973,0.6631,0.0122,0.6877,49.25850083,-122.74685972,1.07000005,
8.3430,0.6107,-0.3321,-0.0432,-4.9087,2.6331,0.6973,0.6631,0.0122,0.6877,49.25850083,-122.74685972,1.07000005,
8.3450,0.8781,-0.3824,-0.1330,-4.9087,2.6331,0.6973,0.6631,0.0122,0.6877,49.25850083,-122.74685972,1.07000005,
8.3510,0.8781,-0.3824,-0.1330,-4.9087,2.6331,0.6973,0.3410,0.1989,0.0130,49.25850083,-122.74685972,1.07000005,
8.3640,0.8781,-0.3824,-0.1330,-6.1583,1.0065,-0.1839,0.3410,0.1989,0.0130,49.25850083,-122.74685972,1.07000005,
8.3670,1.1889,-0.2695,-0.3056,-6.1583,1.0065,-0.1839,0.3410,0.1989,0.0130,49.25850083,-122.74685972,1.07000005,
8.4100,1.3257,-0.1612,-0.2737,-6.1583,1.0065,-0.1839,0.3410,0.1989,0.0130,49.25850083,-122.74685972,1.07000005,
8.4130,1.2677,-0.2813,-0.1567,-6.1583,1.0065,-0.1839,0.3410,0.1989,0.0130,49.25850083,-122.74685972,1.07000005,
8.4250,1.2677,-0.2813,-0.1567,-6.1583,1.0065,-0.1839,0.0444,0.5051,-0.2234,49.25850083,-122.74685972,1.07000005,
8.4280,1.3354,-0.5109,0.0237,-6.1583,1.0065,-0.1839,0.0444,0.5051,-0.2234,49.25850083,-122.74685972,1.07000005,
8.4340,1.3354,-0.5109,0.0237,-1.1677,-0.5917,-2.3441,0.0444,0.5051,-0.2234,49.25850083,-122.74685972,1.07000005,
8.4910,1.6152,-0.5515,-0.2560,-1.1677,-0.5917,-2.3441,0.0444,0.5051,-0.2234,49.25850083,-122.74685972,1.07000005,
8.4940,1.3845,-0.0101,-0.4026,-1.1677,-0.5917,-2.3441,0.0444,0.5051,-0.2234,49.25850083,-122.74685972,1.07000005,
8.4950,1.1894,-0.0524,-0.3079,-1.1677,-0.5917,-2.3441,0.0444,0.5051,-0.2234,49.25850083,-122.74685972,1.07000005,
8.4970,1.1894,-0.0524,-0.3079,-1.1677,-0.5917,-2.3441,-0.1050,-0.3326,-0.1265,49.25850083,-122.74685972,1.07000005,
8.5040,1.1894,-0.0524,-0.3079,3.7157,-1.1791,-2.1123,-0.1050,-0.3326,-0.1265,49.25850083,-122.74685972,1.07000005,
8.5060,1.2739,-0.4673,0.0787,3.7157,-1.1791,-2.1123,-0.1050,-0.3326,-0.1265,49.25850083,-122.74685972,1.07000005,
8.5590,1.2516,-0.8456,0.5510,3.7157,-1.1791,-2.1123,-0.1050,-0.3326,-0.1265,49.25850083,-122.74685972,1.07000005,
8.5620,0.9436,-0.6904,0.4970,3.7157,-1.1791,-2.1123,-0.1050,-0.3326,-0.1265,49.25850083,-122.74685972,1.07000005,
8.5640,0.9436,-0.6904,0.4970,3.7157,-1.1791,-2.1123,-0.5990,1.7617,0.1991,49.25850083,-122.74685972,1.07000005,
8.5760,0.9126,-0.4607,0.1765,3.7157,-1.1791,-2.1123,-0.5990,1.7617,0.1991,49.25850083,-122.74685972,1.07000005,
8.5780,0.9126,-0.4607,0.1765,3.8674,0.4612,-3.7708,-0.5990,1.7617,0.1991,49.25850083,-122.74685972,1.07000005,
8.6120,0.9440,-0.2393,0.6234,3.8674,0.4612,-3.7708,-0.5990,1.7617,0.1991,49.25850083,-122.74685972,1.07000005,
8.6160,1.2150,-0.3370,0.8102,3.8674,0.4612,-3.7708,-0.5990,1.7617,0.1991,49.25850083,-122.74685972,1.07000005,
8.6380,1.3502,-0.2328,0.4119,3.8674,0.4612,-3.7708,-0.5990,1.7617,0.1991,49.25850083,-122.74685972,1.07000005,
8.6410,1.3502,-0.2328,0.4119,3.8674,0.4612,-3.7708,-0.2320,-0.3523,-0.7907,49.25850083,-122.74685972,1.07000005,
8.6470,1.3502,-0.2328,0.4119,0.4556,-3.8035,2.7642,-0.2320,-0.3523,-0.7907,49.25850083,-122.74685972,1.07000005,
8.6500,1.1713,-0.2383,0.2047,0.4556,-3.8035,2.7642,-0.2320,-0.3523,-0.7907,49.25850083,-122.74685972,1.07000005,
8.6910,0.7584,-0.2775,0.1594,0.4556,-3.8035,2.7642,-0.2320,-0.3523,-0.7907,49.25850083,-122.74685972,1.07000005,
8.6950,0.5098,-0.2901,0.1930,0.4556,-3.8035,2.7642,-0.2320,-0.3523,-0.7907,49.25850083,-122.74685972,1.07000005,
8.7080,0.5098,-0.2901,0.1930,0.4556,-3.8035,2.7642,-0.6274,-0.1149,-0.8064,49.25850083,-122.74685972,1.07000005,
8.7180,0.5098,-0.2901,0.1930,2.2339,-0.9794,3.7561,-0.6274,-0.1149,-0.8064,49.25850083,-122.74685972,1.07000005,
8.7210,0.4213,-0.2655,0.1335,2.2339,-0.9794,3.7561,-0.6274,-0.1149,-0.8064,49.25850083,-122.74685972,1.07000005,
8.7600,0.4502,-0.1749,0.0959,2.2339,-0.9794,3.7561,-0.6274,-0.1149,-0.8064,49.25850083,-122.74685972,1.07000005,
8.7630,0.4844,-0.0384,0.0348,2.2339,-0.9794,3.7561,-0.6274,-0.1149,-0.8064,49.25850083,-122.74685972,1.07000005,
8.7800,0.5102,0.0211,-0.0106,2.2339,-0.9794,3.7561,-0.6274,-0.1149,-0.8064,49.25850083,-122.74685972,1.07000005,
8.7830,0.5102,0.0211,-0.0106,2.2339,-0.9794,3.7561,-0.7578,0.0892,-0.4277,49.25850083,-122.74685972,1.07000005,
8.7880,0.5102,0.0211,-0.0106,-4.2404,-1.1109,0.2180,-0.7578,0.0892,-0.4277,49.25850083,-122.74685972,1.07000005,
8.7910,0.5558,0.0395,0.0060,-4.2404,-1.1109,0.2180,-0.7578,0.0892,-0.4277,49.25850083,-122.74685972,1.07000005,
8.8230,0.5934,0.0842,0.0348,-4.2404,-1.1109,0.2180,-0.7578,0.0892,-0.4277,49.25850083,-122.74685972,1.07000005,
8.8500,0.6570,0.0931,0.1241,-4.2404,-1.1109,0.2180,-0.7578,0.0892,-0.4277,49.25850083,-122.74685972,1.07000005,
8.8520,0.6570,0.0931,0.1241,-4.2404,-1.1109,0.2180,-0.1374,0.3229,0.2926,49.25849703,-122.74687551,1.15999997,
8.8640,0.8337,0.0042,0.1639,-4.2404,-1.1109,0.2180,-0.1374,0.3229,0.2926,49.25849703,-122.74687551,1.15999997,
8.8670,0.8337,0.0042,0.1639,-4.4508,1.5849,-1.2817,-0.1374,0.3229,0.2926,49.25849703,-122.74687551,1.15999997,
8.8920,1.0390,-0.0129,0.0127,-4.4508,1.5849,-1.2817,-0.1374,0.3229,0.2926,49.25849703,-122.74687551,1.15999997,
8.8950,1.1842,-0.0278,-0.1195,-4.4508,1.5849,-1.2817,-0.1374,0.3229,0.2926,49.25849703,-122.74687551,1.15999997,
8.9230,1.1842,-0.0278,-0.1195,-4.4508,1.5849,-1.2817,0.1804,-0.0456,0.5473,49.25849703,-122.74687551,1.15999997,
8.9260,1.2729,0.0329,-0.0743,-4.4508,1.5849,-1.2817,0.1804,-0.0456,0.5473,49.25849703,-122.74687551,1.15999997,
8.9310,1.2729,0.0329,-0.0743,-2.1087,2.4984,-0.4924,0.1804,-0.0456,0.5473,49.25849703,-122.74687551,1.15999997,
8.9350,1.2928,-0.0114,0.0512,-2.1087,2.4984,-0.4924,0.1804,-0.0456,0.5473,49.25849703,-122.74687551,1.15999997,
8.9580,1.3188,-0.0864,0.0639,-2.1087,2.4984,-0.4924,0.1804,-0.0456,0.5473,49.25849703,-122.74687551,1.15999997,
8.9920,1.3188,-0.0864,0.0639,-2.1087,2.4984,-0.4924,0.2087,-0.2524,0.0388,49.25849703,-122.74687551,1.15999997,
8.9960,1.4330,-0.2652,-0.1164,-2.1087,2.4984,-0.4924,0.2087,-0.2524,0.0388,49.25849703,-122.74687551,1.15999997,
9.0020,1.4852,-0.3092,-0.2929,-2.1087,2.4984,-0.4924,0.2087,-0.2524,0.0388,49.25849703,-122.74687551,1.15999997,
9.0050,1.4852,-0.3092,-0.2929,2.5926,1.8892,-1.6704,0.2087,-0.2524,0.0388,49.25849703,-122.74687551,1.15999997,
9.0250,1.3385,-0.1386,0.1237,2.5926,1.8892,-1.6704,0.2087,-0.2524,0.0388,49.25849703,-122.74687551,1.15999997,
9.0650,1.2163,0.0895,0.4241,2.5926,1.8892,-1.6704,0.2087,-0.2524,0.0388,49.25849703,-122.74687551,1.15999997,
9.0690,1.2163,0.0895,0.4241,2.5926,1.8892,-1.6704,-0.1985,-0.2277,-0.3938,49.25849703,-122.74687551,1.15999997,
9.0720,0.9405,0.0247,0.6612,2.5926,1.8892,-1.6704,-0.1985,-0.2277,-0.3938,49.25849703,-122.74687551,1.15999997,
9.0740,0.9405,0.0247,0.6612,4.1917,-0.4254,-2.0380,-0.1985,-0.2277,-0.3938,49.25849703,-122.74687551,1.15999997,
9.0750,0.9559,-0.1670,0.5636,4.1917,-0.4254,-2.0380,-0.1985,-0.2277,-0.3938,49.25849703,-122.74687551,1.15999997,
9.1130,1.2557,-0.3523,0.4011,4.1917,-0.4254,-2.0380,-0.1985,-0.2277,-0.3938,49.25849703,-122.74687551,1.15999997,
9.1340,1.4547,-0.4970,0.2583,4.1917,-0.4254,-2.0380,-0.1985,-0.2277,-0.3938,49.25849703,-122.74687551,1.15999997,
9.1380,1.4547,-0.4970,0.2583,4.1917,-0.4254,-2.0380,0.2286,-0.3842,0.1314,49.25849703,-122.74687551,1.15999997,
9.1450,1.4547,-0.4970,0.2583,1.0084,1.5424,4.0902,0.2286,-0.3842,0.1314,49.25849703,-122.74687551,1.15999997,
9.1470,1.6010,-0.5350,0.4347,1.0084,1.5424,4.0902,0.2286,-0.3842,0.1314,49.25849703,-122.74687551,1.15999997,
9.1570,1.2827,-0.4610,0.4449,1.0084,1.5424,4.0902,0.2286,-0.3842,0.1314,49.25849703,-122.74687551,1.15999997,
9.2030,1.2827,-0.4610,0.4449,1.0084,1.5424,4.0902,0.5313,-0.6059,0.5481,49.25849703,-122.74687551,1.15999997,
9.2050,1.0477,-0.2925,0.1592,1.0084,1.5424,4.0902,0.5313,-0.6059,0.5481,49.25849703,-122.74687551,1.15999997,
9.2050,0.8282,-0.1178,0.1272,1.0084,1.5424,4.0902,0.5313,-0.6059,0.5481,49.25849703,-122.74687551,1.15999997,
9.2150,0.6223,0.0291,0.1483,1.0084,1.5424,4.0902,0.5313,-0.6059,0.5481,49.25849703,-122.74687551,1.15999997,
9.2160,0.6223,0.0291,0.1483,4.3608,-2.3593,3.2211,0.5313,-0.6059,0.5481,49.25849703,-122.74687551,1.15999997,
9.2750,0.4270,0.0579,0.1670,4.3608,-2.3593,3.2211,0.5313,-0.6059,0.5481,49.25849703,-122.74687551,1.15999997,
9.2760,0.4270,0.0579,0.1670,4.3608,-2.3593,3.2211,0.8251,-0.4169,0.7234,49.25849703,-122.74687551,1.15999997,
9.2760,0.2928,-0.0150,0.1263,4.3608,-2.3593,3.2211,0.8251,-0.4169,0.7234,49.25849703,-122.74687551,1.15999997,
9.2840,0.2874,-0.1021,0.1043,4.3608,-2.3593,3.2211,0.8251,-0.4169,0.7234,49.25849703,-122.74687551,1.15999997,
9.2880,0.2874,-0.1021,0.1043,-0.7728,0.9815,1.2468,0.8251,-0.4169,0.7234,49.25849703,-122.74687551,1.15999997,
9.3480,0.2875,-0.1699,0.0845,-0.7728,0.9815,1.2468,0.8251,-0.4169,0.7234,49.25849703,-122.74687551,1.15999997,
9.3520,0.2875,-0.1699,0.0845,-0.7728,0.9815,1.2468,0.7411,0.0475,0.4566,49.25849703,-122.74687551,1.15999997,
9.3540,0.2831,-0.2232,0.0932,-0.7728,0.9815,1.2468,0.7411,0.0475,0.4566,49.25849703,-122.74687551,1.15999997,
9.3560,0.3303,-0.2869,0.0567,-0.7728,0.9815,1.2468,0.7411,0.0475,0.4566,49.25849703,-122.74687551,1.15999997,
9.3620,0.3303,-0.2869,0.0567,-6.0734,2.4260,0.5028,0.7411,0.0475,0.4566,49.25849703,-122.74687551,1.15999997,
9.3640,0.5252,-0.3352,-0.0272,-6.0734,2.4260,0.5028,0.7411,0.0475,0.4566,49.25849703,-122.74687551,1.15999997,
9.4090,0.7795,-0.2844,-0.1579,-6.0734,2.4260,0.5028,0.7411,0.0475,0.4566,49.25849703,-122.74687551,1.15999997,
9.4130,1.1056,-0.1825,-0.2729,-6.0734,2.4260,0.5028,0.7411,0.0475,0.4566,49.25849703,-122.74687551,1.15999997,
9.4180,1.1056,-0.1825,-0.2729,-6.0734,2.4260,0.5028,0.3348,-0.1732,-0.1635,49.25849703,-122.74687551,1.15999997,
9.4220,1.2371,-0.2850,-0.2918,-6.0734,2.4260,0.5028,0.3348,-0.1732,-0.1635,49.25849703,-122.74687551,1.15999997,
9.4270,1.2371,-0.2850,-0.2918,-5.6506,0.0693,-0.1732,0.3348,-0.1732,-0.1635,49.25849703,-122.74687551,1.15999997,
9.4900,1.3387,-0.4796,-0.1403,-5.6506,0.0693,-0.1732,0.3348,-0.1732,-0.1635,49.25849703,-122.74687551,1.15999997,
9.4940,1.3387,-0.4796,-0.1403,-5.6506,0.0693,-0.1732,0.0558,0.4220,-0.0572,49.25849703,-122.74687551,1.15999997,
9.4960,1.4702,-0.4990,-0.0412,-5.6506,0.0693,-0.1732,0.0558,0.4220,-0.0572,49.25849703,-122.74687551,1.15999997,
9.4980,1.4964,-0.2528,-0.1980,-5.6506,0.0693,-0.1732,0.0558,0.4220,-0.0572,49.25849703,-122.74687551,1.15999997,
9.4990,1.4964,-0.2528,-0.1980,1.2790,-0.1381,-3.1636,0.0558,0.4220,-0.0572,49.25849703,-122.74687551,1.15999997,
9.5010,1.3628,0.0225,-0.2432,1.2790,-0.1381,-3.1636,0.0558,0.4220,-0.0572,49.25849703,-122.74687551,1.15999997,
9.5590,1.3852,-0.1220,-0.2542,1.2790,-0.1381,-3.1636,0.0558,0.4220,-0.0572,49.25849703,-122.74687551,1.15999997,
9.5640,1.3277,-0.5263,0.1484,1.2790,-0.1381,-3.1636,0.0558,0.4220,-0.0572,49.25849703,-122.74687551,1.15999997,
9.5660,1.3277,-0.5263,0.1484,1.2790,-0.1381,-3.1636,-0.1712,0.6090,-0.0672,49.25849703,-122.74687551,1.15999997,
9.5710,1.3277,-0.5263,0.1484,4.8282,-0.0464,-2.8767,-0.1712,0.6090,-0.0672,49.25849703,-122.74687551,1.15999997,
9.5730,1.2482,-0.8001,0.5701,4.8282,-0.0464,-2.8767,-0.1712,0.6090,-0.0672,49.25849703,-122.74687551,1.15999997,
9.6140,0.6879,-0.6288,0.3189,4.8282,-0.0464,-2.8767,-0.1712,0.6090,-0.0672,49.25849703,-122.74687551,1.15999997,
9.6170,0.7502,-0.5870,0.2017,4.8282,-0.0464,-2.8767,-0.1712,0.6090,-0.0672,49.25849703,-122.74687551,1.15999997,
9.6240,0.9398,-0.3657,0.6355,4.8282,-0.0464,-2.8767,-0.1712,0.6090,-0.0672,49.25849703,-122.74687551,1.15999997,
9.6310,0.9398,-0.3657,0.6355,4.8282,-0.0464,-2.8767,-0.6489,0.7598,-0.2264,49.25849703,-122.74687551,1.15999997,
9.6420,0.9398,-0.3657,0.6355,2.8736,-2.4879,0.2515,-0.6489,0.7598,-0.2264,49.25849703,-122.74687551,1.15999997,
9.6440,1.2100,-0.3954,1.0030,2.8736,-2.4879,0.2515,-0.6489,0.7598,-0.2264,49.25849703,-122.74687551,1.15999997,
9.6890,1.3385,-0.1901,0.3865,2.8736,-2.4879,0.2515,-0.6489,0.7598,-0.2264,49.25849703,-122.74687551,1.15999997,
9.6900,1.2609,-0.1785,0.1204,2.8736,-2.4879,0.2515,-0.6489,0.7598,-0.2264,49.25849703,-122.74687551,1.15999997,
9.7010,1.2609,-0.1785,0.1204,2.8736,-2.4879,0.2515,-0.2904,-0.4669,-0.9455,49.25849703,-122.74687551,1.15999997,
9.7120,1.2609,-0.1785,0.1204,-0.5946,-2.6510,4.2734,-0.2904,-0.4669,-0.9455,49.25849703,-122.74687551,1.15999997,
9.7140,0.8184,-0.2625,0.0998,-0.5946,-2.6510,4.2734,-0.2904,-0.4669,-0.9455,49.25849703,-122.74687551,1.15999997,
9.7580,0.5558,-0.2412,0.1706,-0.5946,-2.6510,4.2734,-0.2904,-0.4669,-0.9455,49.25849703,-122.74687551,1.15999997,
9.7620,0.4253,-0.2141,0.1279,-0.5946,-2.6510,4.2734,-0.2904,-0.4669,-0.9455,49.25849703,-122.74687551,1.15999997,
9.7720,0.3980,-0.1691,0.0827,-0.5946,-2.6510,4.2734,-0.2904,-0.4669,-0.9455,49.25849703,-122.74687551,1.15999997,
9.7750,0.3980,-0.1691,0.0827,-0.5946,-2.6510,4.2734,-0.6458,-0.0590,-0.7932,49.25849703,-122.74687551,1.15999997,
9.7830,0.3980,-0.1691,0.0827,0.8067,-0.5920,0.7711,-0.6458,-0.0590,-0.7932,49.25849703,-122.74687551,1.15999997,
9.7840,0.4171,-0.0605,-0.0110,0.8067,-0.5920,0.7711,-0.6458,-0.0590,-0.7932,49.25849703,-122.74687551,1.15999997,
9.8220,0.4774,0.0183,-0.0575,0.8067,-0.5920,0.7711,-0.6458,-0.0590,-0.7932,49.25849703,-122.74687551,1.15999997,
9.8240,0.5293,-0.0210,0.0436,0.8067,-0.5920,0.7711,-0.6458,-0.0590,-0.7932,49.25849626,-122.74689116,1.13000000,
9.8440,0.5293,-0.0210,0.0436,0.8067,-0.5920,0.7711,-0.5260,0.1256,-0.0659,49.25849626,-122.74689116,1.13000000,
9.8540,0.5293,-0.0210,0.0436,-5.3519,0.0410,-0.3986,-0.5260,0.1256,-0.0659,49.25849626,-122.74689116,1.13000000,
9.8560,0.5870,0.0209,0.0355,-5.3519,0.0410,-0.3986,-0.5260,0.1256,-0.0659,49.25849626,-122.74689116,1.13000000,
9.8910,0.7199,0.0927,0.0084,-5.3519,0.0410,-0.3986,-0.5260,0.1256,-0.0659,49.25849626,-122.74689116,1.13000000,
9.8950,0.8829,0.0575,0.0425,-5.3519,0.0410,-0.3986,-0.5260,0.1256,-0.0659,49.25849626,-122.74689116,1.13000000,
9.9150,1.0494,0.0364,-0.0068,-5.3519,0.0410,-0.3986,-0.5260,0.1256,-0.0659,49.25849626,-122.74689116,1.13000000,
9.9190,1.0494,0.0364,-0.0068,-5.3519,0.0410,-0.3986,-0.0686,0.0914,0.4843,49.25849626,-122.74689116,1.13000000,
9.9260,1.1907,-0.0161,-0.0700,-5.3519,0.0410,-0.3986,-0.0686,0.0914,0.4843,49.25849626,-122.74689116,1.13000000,
9.9280,1.1907,-0.0161,-0.0700,-3.9568,2.0977,-1.1578,-0.0686,0.0914,0.4843,49.25849626,-122.74689116,1.13000000,
9.9590,1.2498,0.1101,-0.0211,-3.9568,2.0977,-1.1578,-0.0686,0.0914,0.4843,49.25849626,-122.74689116,1.13000000,
9.9860,1.2498,0.1101,-0.0211,-3.9568,2.0977,-1.1578,0.1466,0.0649,0.2111,49.25849626,-122.74689116,1.13000000,
9.9900,1.3127,0.0518,0.0694,-3.9568,2.0977,-1.1578,0.1466,0.0649,0.2111,49.25849626,-122.74689116,1.13000000,
9.9970,1.4100,-0.1395,0.0033,-3.9568,2.0977,-1.1578,0.1466,0.0649,0.2111,49.25849626,-122.74689116,1.13000000,
10.0000,1.4100,-0.1395,0.0033,0.4237,2.2746,-1.2933,0.1466,0.0649,0.2111,49.25849626,-122.74689116,1.13000000,
10.0250,1.5546,-0.2680,-0.2558,0.4237,2.2746,-1.2933,0.1466,0.0649,0.2111,49.25849626,-122.74689116,1.13000000,
10.0590,1.4509,-0.1921,-0.2399,0.4237,2.2746,-1.2933,0.1466,0.0649,0.2111,49.25849626,-122.74689116,1.13000000,
10.0630,1.4509,-0.1921,-0.2399,0.4237,2.2746,-1.2933,-0.1297,-0.3077,-0.4690,49.25849626,-122.74689116,1.13000000,
10.0650,1.4619,0.0055,0.2309,0.4237,2.2746,-1.2933,-0.1297,-0.3077,-0.4690,49.25849626,-122.74689116,1.13000000,
10.0670,1.4619,0.0055,0.2309,3.7605,1.2927,-1.0665,-0.1297,-0.3077,-0.4690,49.25849626,-122.74689116,1.13000000,
10.0690,1.2694,0.0210,0.4919,3.7605,1.2927,-1.0665,-0.1297,-0.3077,-0.4690,49.25849626,-122.74689116,1.13000000,
10.0910,0.9503,-0.1748,0.6059,3.7605,1.2927,-1.0665,-0.1297,-0.3077,-0.4690,49.25849626,-122.74689116,1.13000000,
10.1130,0.9679,-0.3239,0.5476,3.7605,1.2927,-1.0665,-0.1297,-0.3077,-0.4690,49.25849626,-122.74689116,1.13000000,
10.1290,0.9679,-0.3239,0.5476,3.7605,1.2927,-1.0665,0.0484,-0.0838,-0.1369,49.25849626,-122.74689116,1.13000000,
10.1410,0.9679,-0.3239,0.5476,4.2910,0.6704,-0.0645,0.0484,-0.0838,-0.1369,49.25849626,-122.74689116,1.13000000,
10.1450,1.2591,-0.4835,0.3165,4.2910,0.6704,-0.0645,0.0484,-0.0838,-0.1369,49.25849626,-122.74689116,1.13000000,
10.1600,1.4984,-0.6729,0.1836,4.2910,0.6704,-0.0645,0.0484,-0.0838,-0.1369,49.25849626,-122.74689116,1.13000000,
10.2020,1.4984,-0.6729,0.1836,4.2910,0.6704,-0.0645,0.0831,-0.6572,0.2837,49.25849626,-122.74689116,1.13000000,
10.2060,1.4901,-0.6255,0.3856,4.2910,0.6704,-0.0645,0.0831,-0.6572,0.2837,49.25849626,-122.74689116,1.13000000,
10.2080,1.0522,-0.3693,0.3473,4.2910,0.6704,-0.0645,0.0831,-0.6572,0.2837,49.25849626,-122.74689116,1.13000000,
10.2100,1.0522,-0.3693,0.3473,1.2624,-1.8475,3.7938,0.0831,-0.6572,0.2837,49.25849626,-122.74689116,1.13000000,
10.2130,0.8759,-0.2289,0.0408,1.2624,-1.8475,3.7938,0.0831,-0.6572,0.2837,49.25849626,-122.74689116,1.13000000,
10.2700,0.7131,-0.0557,0.0733,1.2624,-1.8475,3.7938,0.0831,-0.6572,0.2837,49.25849626,-122.74689116,1.13000000,
10.2740,0.7131,-0.0557,0.0733,1.2624,-1.8475,3.7938,0.3359,-0.4546,0.5476,49.25849626,-122.74689116,1.13000000,
10.2760,0.5409,0.0788,0.1292,1.2624,-1.8475,3.7938,0.3359,-0.4546,0.5476,49.25849626,-122.74689116,1.13000000,
10.2800,0.5409,0.0788,0.1292,2.1868,-2.2011,2.0692,0.3359,-0.4546,0.5476,49.25849626,-122.74689116,1.13000000,
10.2830,0.3755,0.0689,0.1347,2.1868,-2.2011,2.0692,0.3359,-0.4546,0.5476,49.25849626,-122.74689116,1.13000000,
10.2920,0.2692,-0.0407,0.0642,2.1868,-2.2011,2.0692,0.3359,-0.4546,0.5476,49.25849626,-122.74689116,1.13000000,
10.3410,0.3015,-0.1120,0.0325,2.1868,-2.2011,2.0692,0.3359,-0.4546,0.5476,49.25849626,-122.74689116,1.13000000,
10.3440,0.3015,-0.1120,0.0325,2.1868,-2.2011,2.0692,0.4338,0.0260,0.7865,49.25849626,-122.74689116,1.13000000,
10.3460,0.3061,-0.1897,0.0531,2.1868,-2.2011,2.0692,0.4338,0.0260,0.7865,49.25849626,-122.74689116,1.13000000,
10.3510,0.3061,-0.1897,0.0531,-4.4486,2.8697,0.5462,0.4338,0.0260,0.7865,49.25849626,-122.74689116,1.13000000,
10.3530,0.3105,-0.2335,0.0837,-4.4486,2.8697,0.5462,0.4338,0.0260,0.7865,49.25849626,-122.74689116,1.13000000,
10.4120,0.4187,-0.2789,0.0166,-4.4486,2.8697,0.5462,0.4338,0.0260,0.7865,49.25849626,-122.74689116,1.13000000,
10.4180,0.6521,-0.2355,-0.1101,-4.4486,2.8697,0.5462,0.4338,0.0260,0.7865,49.25849626,-122.74689116,1.13000000,
10.4220,0.6521,-0.2355,-0.1101,-4.4486,2.8697,0.5462,0.5363,-0.0051,0.0830,49.25849626,-122.74689116,1.13000000,
10.4260,0.9338,-0.1375,-0.2355,-4.4486,2.8697,0.5462,0.5363,-0.0051,0.0830,49.25849626,-122.74689116,1.13000000,
10.4290,0.9338,-0.1375,-0.2355,-6.3291,1.0492,0.0145,0.5363,-0.0051,0.0830,49.25849626,-122.74689116,1.13000000,
10.4850,0.9338,-0.1375,-0.2355,-6.3291,1.0492,0.0145,0.4863,0.3784,-0.0168,49.25849626,-122.74689116,1.13000000,
10.4890,1.2356,-0.0953,-0.3198,-6.3291,1.0492,0.0145,0.4863,0.3784,-0.0168,49.25849626,-122.74689116,1.13000000,
10.4920,1.3472,-0.1739,-0.2066,-6.3291,1.0492,0.0145,0.4863,0.3784,-0.0168,49.25849626,-122.74689116,1.13000000,
10.4940,1.4222,-0.4842,-0.0721,-6.3291,1.0492,0.0145,0.4863,0.3784,-0.0168,49.25849626,-122.74689116,1.13000000,
10.4950,1.4222,-0.4842,-0.0721,-1.9480,0.6544,-2.2792,0.4863,0.3784,-0.0168,49.25849626,-122.74689116,1.13000000,
10.4970,1.6563,-0.6060,-0.1877,-1.9480,0.6544,-2.2792,0.4863,0.3784,-0.0168,49.25849626,-122.74689116,1.13000000,
10.5560,1.3630,-0.1719,-0.2890,-1.9480,0.6544,-2.2792,0.4863,0.3784,-0.0168,49.25849626,-122.74689116,1.13000000,
10.5600,1.3630,-0.1719,-0.2890,-1.9480,0.6544,-2.2792,0.1199,0.3506,-0.0944,49.25849626,-122.74689116,1.13000000,
10.5620,1.3630,-0.2642,-0.1284,-1.9480,0.6544,-2.2792,0.1199,0.3506,-0.0944,49.25849626,-122.74689116,1.13000000,
10.5640,1.4666,-0.6658,0.2607,-1.9480,0.6544,-2.2792,0.1199,0.3506,-0.0944,49.25849626,-122.74689116,1.13000000,
10.5660,1.4666,-0.6658,0.2607,4.9408,-1.1136,-3.0775,0.1199,0.3506,-0.0944,49.25849626,-122.74689116,1.13000000,
10.6130,1.3687,-0.9464,0.5294,4.9408,-1.1136,-3.0775,0.1199,0.3506,-0.0944,49.25849626,-122.74689116,1.13000000,
10.6170,0.9995,-0.4749,0.2535,4.9408,-1.1136,-3.0775,0.1199,0.3506,-0.0944,49.25849626,-122.74689116,1.13000000,
10.6250,0.6816,-0.3055,0.2795,4.9408,-1.1136,-3.0775,0.1199,0.3506,-0.0944,49.25849626,-122.74689116,1.13000000,
10.6270,0.6816,-0.3055,0.2795,4.9408,-1.1136,-3.0775,-0.7967,0.7981,0.0919,49.25849626,-122.74689116,1.13000000,
10.6350,0.8598,-0.3236,0.8002,4.9408,-1.1136,-3.0775,-0.7967,0.7981,0.0919,49.25849626,-122.74689116,1.13000000,
10.6380,0.8598,-0.3236,0.8002,4.3710,-1.8247,-1.0965,-0.7967,0.7981,0.0919,49.25849626,-122.74689116,1.13000000,
10.6920,1.2016,-0.3713,0.9008,4.3710,-1.8247,-1.0965,-0.7967,0.7981,0.0919,49.25849626,-122.74689116,1.13000000,
10.6960,1.3210,-0.2726,0.4686,4.3710,-1.8247,-1.0965,-0.7967,0.7981,0.0919,49.25849626,-122.74689116,1.13000000,
10.6990,1.3210,-0.2726,0.4686,4.3710,-1.8247,-1.0965,-0.1792,0.0046,-0.7872,49.25849626,-122.74689116,1.13000000,
10.7070,1.3210,-0.2726,0.4686,-0.4278,-2.2041,3.0752,-0.1792,0.0046,-0.7872,49.25849626,-122.74689116,1.13000000,
10.7100,1.0635,-0.2482,0.2311,-0.4278,-2.2041,3.0752,-0.1792,0.0046,-0.7872,49.25849626,-122.74689116,1.13000000,
10.7580,0.6888,-0.2601,0.1859,-0.4278,-2.2041,3.0752,-0.1792,0.0046,-0.7872,49.25849626,-122.74689116,1.13000000,
10.7630,0.5041,-0.2853,0.1818,-0.4278,-2.2041,3.0752,-0.1792,0.0046,-0.7872,49.25849626,-122.74689116,1.13000000,
10.7650,0.4369,-0.2146,0.1232,-0.4278,-2.2041,3.0752,-0.1792,0.0046,-0.7872,49.25849626,-122.74689116,1.13000000,
10.7700,0.4369,-0.2146,0.1232,-0.4278,-2.2041,3.0752,-0.7685,-0.2715,-0.8735,49.25849626,-122.74689116,1.13000000,
10.7790,0.4369,-0.2146,0.1232,1.4921,-1.1723,3.5209,-0.7685,-0.2715,-0.8735,49.25849626,-122.74689116,1.13000000,
10.7810,0.4577,-0.0893,0.0657,1.4921,-1.1723,3.5209,-0.7685,-0.2715,-0.8735,49.25849626,-122.74689116,1.13000000,
10.8220,0.4582,0.0099,0.0315,1.4921,-1.1723,3.5209,-0.7685,-0.2715,-0.8735,49.25849626,-122.74689116,1.13000000,
10.8250,0.4725,0.0502,0.0335,1.4921,-1.1723,3.5209,-0.7685,-0.2715,-0.8735,49.25849626,-122.74689116,1.13000000,
10.8400,0.4725,0.0502,0.0335,1.4921,-1.1723,3.5209,-0.7141,0.1648,-0.3571,49.25849626,-122.74689116,1.13000000,
10.8500,0.5327,0.0613,0.0415,1.4921,-1.1723,3.5209,-0.7141,0.1648,-0.3571,49.25849626,-122.74689116,1.13000000,
10.8520,0.5327,0.0613,0.0415,-4.7284,-0.4378,0.0475,-0.7141,0.1648,-0.3571,49.25849448,-122.74690753,1.13999999,
10.8600,0.6046,0.0542,0.0377,-4.7284,-0.4378,0.0475,-0.7141,0.1648,-0.3571,49.25849448,-122.74690753,1.13999999,
10.8920,0.7246,0.0454,0.0653,-4.7284,-0.4378,0.0475,-0.7141,0.1648,-0.3571,49.25849448,-122.74690753,1.13999999,
10.9090,0.8503,0.0217,0.1011,-4.7284,-0.4378,0.0475,-0.7141,0.1648,-0.3571,49.25849448,-122.74690753,1.13999999,
10.9130,0.8503,0.0217,0.1011,-4.7284,-0.4378,0.0475,-0.1824,0.2575,0.3222,49.25849448,-122.74690753,1.13999999,
10.9200,0.9882,-0.0098,0.0596,-4.7284,-0.4378,0.0475,-0.1824,0.2575,0.3222,49.25849448,-122.74690753,1.13999999,
10.9240,0.9882,-0.0098,0.0596,-4.4797,2.2328,-1.0475,-0.1824,0.2575,0.3222,49.25849448,-122.74690753,1.13999999,
10.9580,1.1144,-0.0181,-0.0072,-4.4797,2.2328,-1.0475,-0.1824,0.2575,0.3222,49.25849448,-122.74690753,1.13999999,
10.9810,1.1884,-0.0602,-0.0803,-4.4797,2.2328,-1.0475,-0.1824,0.2575,0.3222,49.25849448,-122.74690753,1.13999999,
10.9850,1.1884,-0.0602,-0.0803,-4.4797,2.2328,-1.0475,-0.0859,-0.1291,0.5242,49.25849448,-122.74690753,1.13999999,
10.9920,1.2350,-0.0601,0.0320,-4.4797,2.2328,-1.0475,-0.0859,-0.1291,0.5242,49.25849448,-122.74690753,1.13999999,
10.9940,1.2350,-0.0601,0.0320,-1.2363,2.3435,-0.6107,-0.0859,-0.1291,0.5242,49.25849448,-122.74690753,1.13999999,
11.0250,1.3022,0.0882,0.1248,-1.2363,2.3435,-0.6107,-0.0859,-0.1291,0.5242,49.25849448,-122.74690753,1.13999999,
11.0290,1.4413,0.0134,-0.0934,-1.2363,2.3435,-0.6107,-0.0859,-0.1291,0.5242,49.25849448,-122.74690753,1.13999999,
11.0530,1.4413,0.0134,-0.0934,-1.2363,2.3435,-0.6107,0.0665,-0.0517,-0.1081,49.25849448,-122.74690753,1.13999999,
11.0560,1.5509,-0.1270,-0.1285,-1.2363,2.3435,-0.6107,0.0665,-0.0517,-0.1081,49.25849448,-122.74690753,1.13999999,
11.0630,1.5509,-0.1270,-0.1285,2.3057,1.6220,-1.1880,0.0665,-0.0517,-0.1081,49.25849448,-122.74690753,1.13999999,
11.0650,1.5865,-0.0535,0.1893,2.3057,1.6220,-1.1880,0.0665,-0.0517,-0.1081,49.25849448,-122.74690753,1.13999999,
11.0910,1.3949,0.0798,0.4337,2.3057,1.6220,-1.1880,0.0665,-0.0517,-0.1081,49.25849448,-122.74690753,1.13999999,
11.1120,1.1185,-0.1286,0.4306,2.3057,1.6220,-1.1880,0.0665,-0.0517,-0.1081,49.25849448,-122.74690753,1.13999999,
11.1240,1.1185,-0.1286,0.4306,2.3057,1.6220,-1.1880,0.2269,-0.2908,-0.4195,49.25849448,-122.74690753,1.13999999,
11.1350,1.1185,-0.1286,0.4306,5.1439,1.3251,-0.9815,0.2269,-0.2908,-0.4195,49.25849448,-122.74690753,1.13999999,
11.1380,0.9568,-0.2968,0.4645,5.1439,1.3251,-0.9815,0.2269,-0.2908,-0.4195,49.25849448,-122.74690753,1.13999999,
11.1600,1.1756,-0.4144,0.5737,5.1439,1.3251,-0.9815,0.2269,-0.2908,-0.4195,49.25849448,-122.74690753,1.13999999,
11.1950,1.3894,-0.5111,0.2230,5.1439,1.3251,-0.9815,0.2269,-0.2908,-0.4195,49.25849448,-122.74690753,1.13999999,
11.2000,1.3894,-0.5111,0.2230,5.1439,1.3251,-0.9815,0.4453,-0.6254,0.0858,49.25849448,-122.74690753,1.13999999,
11.2030,1.4635,-0.5913,0.3585,5.1439,1.3251,-0.9815,0.4453,-0.6254,0.0858,49.25849448,-122.74690753,1.13999999,
11.2050,1.4635,-0.5913,0.3585,1.6556,0.1922,3.8806,0.4453,-0.6254,0.0858,49.25849448,-122.74690753,1.13999999,
11.2070,1.2033,-0.4572,0.3945,1.6556,0.1922,3.8806,0.4453,-0.6254,0.0858,49.25849448,-122.74690753,1.13999999,
11.2660,0.9799,-0.2850,0.1650,1.6556,0.1922,3.8806,0.4453,-0.6254,0.0858,49.25849448,-122.74690753,1.13999999,
11.2690,0.9799,-0.2850,0.1650,1.6556,0.1922,3.8806,0.5659,-0.5194,0.6199,49.25849448,-122.74690753,1.13999999,
11.2720,0.7738,-0.1209,0.0671,1.6556,0.1922,3.8806,0.5659,-0.5194,0.6199,49.25849448,-122.74690753,1.13999999,
11.2740,0.5825,-0.0032,0.0890,1.6556,0.1922,3.8806,0.5659,-0.5194,0.6199,49.25849448,-122.74690753,1.13999999,
11.2760,0.5825,-0.0032,0.0890,3.5440,-2.7717,2.9787,0.5659,-0.5194,0.6199,49.25849448,-122.74690753,1.13999999,
11.2910,0.3889,-0.0027,0.1659,3.5440,-2.7717,2.9787,0.5659,-0.5194,0.6199,49.25849448,-122.74690753,1.13999999,
11.3380,0.3889,-0.0027,0.1659,3.5440,-2.7717,2.9787,0.6378,-0.1726,0.7428,49.25849448,-122.74690753,1.13999999,
11.3420,0.3162,-0.0657,0.1163,3.5440,-2.7717,2.9787,0.6378,-0.1726,0.7428,49.25849448,-122.74690753,1.13999999,
11.3440,0.2640,-0.0977,0.1004,3.5440,-2.7717,2.9787,0.6378,-0.1726,0.7428,49.25849448,-122.74690753,1.13999999,
11.3460,0.2421,-0.1626,0.1152,3.5440,-2.7717,2.9787,0.6378,-0.1726,0.7428,49.25849448,-122.74690753,1.13999999,
11.3470,0.2421,-0.1626,0.1152,-2.2785,1.5040,0.5885,0.6378,-0.1726,0.7428,49.25849448,-122.74690753,1.13999999,
11.4080,0.2798,-0.2473,0.1192,-2.2785,1.5040,0.5885,0.6378,-0.1726,0.7428,49.25849448,-122.74690753,1.13999999,
11.4120,0.2798,-0.2473,0.1192,-2.2785,1.5040,0.5885,0.4864,0.0313,0.2726,49.25849448,-122.74690753,1.13999999,
11.4140,0.3976,-0.3201,0.0569,-2.2785,1.5040,0.5885,0.4864,0.0313,0.2726,49.25849448,-122.74690753,1.13999999,
11.4160,0.6051,-0.3646,-0.0307,-2.2785,1.5040,0.5885,0.4864,0.0313,0.2726,49.25849448,-122.74690753,1.13999999,
11.4180,0.6051,-0.3646,-0.0307,-6.4826,1.7637,0.5161,0.4864,0.0313,0.2726,49.25849448,-122.74690753,1.13999999,
11.4790,0.8572,-0.3057,-0.1725,-6.4826,1.7637,0.5161,0.4864,0.0313,0.2726,49.25849448,-122.74690753,1.13999999,
11.4840,0.8572,-0.3057,-0.1725,-6.4826,1.7637,0.5161,0.3008,-0.1257,-0.1459,49.25849448,-122.74690753,1.13999999,
11.4860,1.1797,-0.1929,-0.3061,-6.4826,1.7637,0.5161,0.3008,-0.1257,-0.1459,49.25849448,-122.74690753,1.13999999,
11.4880,1.3379,-0.1593,-0.3217,-6.4826,1.7637,0.5161,0.3008,-0.1257,-0.1459,49.25849448,-122.74690753,1.13999999,
11.4900,1.3518,-0.2903,-0.2233,-6.4826,1.7637,0.5161,0.3008,-0.1257,-0.1459,49.25849448,-122.74690753,1.13999999,
11.4920,1.3518,-0.2903,-0.2233,-4.5331,-0.4636,-0.4256,0.3008,-0.1257,-0.1459,49.25849448,-122.74690753,1.13999999,
11.5500,1.3518,-0.2903,-0.2233,-4.5331,-0.4636,-0.4256,0.4015,-0.0078,-0.0020,49.25849448,-122.74690753,1.13999999,
11.5540,1.4411,-0.3848,-0.0936,-4.5331,-0.4636,-0.4256,0.4015,-0.0078,-0.0020,49.25849448,-122.74690753,1.13999999,
11.5560,1.4668,-0.1946,-0.2058,-4.5331,-0.4636,-0.4256,0.4015,-0.0078,-0.0020,49.25849448,-122.74690753,1.13999999,
11.5580,1.3137,0.0737,-0.3991,-4.5331,-0.4636,-0.4256,0.4015,-0.0078,-0.0020,49.25849448,-122.74690753,1.13999999,
11.5600,1.3137,0.0737,-0.3991,2.8371,0.3454,-3.2238,0.4015,-0.0078,-0.0020,49.25849448,-122.74690753,1.13999999,
11.6140,1.0813,0.0873,-0.3568,2.8371,0.3454,-3.2238,0.4015,-0.0078,-0.0020,49.25849448,-122.74690753,1.13999999,
11.6190,1.1253,-0.3944,0.0796,2.8371,0.3454,-3.2238,0.4015,-0.0078,-0.0020,49.25849448,-122.74690753,1.13999999,
11.6210,1.0808,-0.7679,0.6011,2.8371,0.3454,-3.2238,0.4015,-0.0078,-0.0020,49.25849448,-122.74690753,1.13999999,
11.6240,1.0808,-0.7679,0.6011,2.8371,0.3454,-3.2238,0.1346,1.1795,-0.2591,49.25849448,-122.74690753,1.13999999,
11.6310,1.0808,-0.7679,0.6011,4.1856,1.2596,-4.2510,0.1346,1.1795,-0.2591,49.25849448,-122.74690753,1.13999999,
11.6330,0.9923,-0.9678,0.8445,4.1856,1.2596,-4.2510,0.1346,1.1795,-0.2591,49.25849448,-122.74690753,1.13999999,
11.6920,1.3413,-0.7190,0.3755,4.1856,1.2596,-4.2510,0.1346,1.1795,-0.2591,49.25849448,-122.74690753,1.13999999,
11.6950,0.9398,-0.3021,0.1699,4.1856,1.2596,-4.2510,0.1346,1.1795,-0.2591,49.25849448,-122.74690753,1.13999999,
11.6970,1.0538,-0.4061,0.8492,4.1856,1.2596,-4.2510,0.1346,1.1795,-0.2591,49.25849448,-122.74690753,1.13999999,
11.6990,1.0538,-0.4061,0.8492,4.1856,1.2596,-4.2510,-0.5161,-0.0403,-0.3053,49.25849448,-122.74690753,1.13999999,
11.7010,1.0538,-0.4061,0.8492,0.9770,-3.7590,2.6634,-0.5161,-0.0403,-0.3053,49.25849448,-122.74690753,1.13999999,
11.7570,1.3419,-0.2732,0.6758,0.9770,-3.7590,2.6634,-0.5161,-0.0403,-0.3053,49.25849448,-122.74690753,1.13999999,
11.7600,1.3032,-0.2091,0.2875,0.9770,-3.7590,2.6634,-0.5161,-0.0403,-0.3053,49.25849448,-122.74690753,1.13999999,
11.7620,0.8322,-0.2465,0.1609,0.9770,-3.7590,2.6634,-0.5161,-0.0403,-0.3053,49.25849448,-122.74690753,1.13999999,
11.7640,0.8322,-0.2465,0.1609,0.9770,-3.7590,2.6634,-0.3157,-0.1042,-0.8861,49.25849448,-122.74690753,1.13999999,
11.7710,0.5045,-0.3216,0.1896,0.9770,-3.7590,2.6634,-0.3157,-0.1042,-0.8861,49.25849448,-122.74690753,1.13999999,
11.7740,0.5045,-0.3216,0.1896,1.6231,-2.7245,3.9215,-0.3157,-0.1042,-0.8861,49.25849448,-122.74690753,1.13999999,
11.8220,0.3578,-0.3653,0.1978,1.6231,-2.7245,3.9215,-0.3157,-0.1042,-0.8861,49.25849448,-122.74690753,1.13999999,
11.8240,0.4264,-0.2542,0.0750,1.6231,-2.7245,3.9215,-0.3157,-0.1042,-0.8861,49.25849172,-122.74692305,1.05999994,
11.8310,0.4264,-0.2542,0.0750,1.6231,-2.7245,3.9215,-0.9665,-0.0864,-0.7380,49.25849172,-122.74692305,1.05999994,
11.8420,0.4598,-0.0343,0.0034,1.6231,-2.7245,3.9215,-0.9665,-0.0864,-0.7380,49.25849172,-122.74692305,1.05999994,
11.8430,0.4598,-0.0343,0.0034,-0.3119,-1.1415,1.3764,-0.9665,-0.0864,-0.7380,49.25849172,-122.74692305,1.05999994,
11.8610,0.4811,-0.0035,0.0266,-0.3119,-1.1415,1.3764,-0.9665,-0.0864,-0.7380,49.25849172,-122.74692305,1.05999994,
11.8890,0.4791,0.0021,0.0923,-0.3119,-1.1415,1.3764,-0.9665,-0.0864,-0.7380,49.25849172,-122.74692305,1.05999994,
11.9030,0.4791,0.0021,0.0923,-0.3119,-1.1415,1.3764,-0.8890,0.3251,-0.0653,49.25849172,-122.74692305,1.05999994,
11.9060,0.5262,0.0710,0.0661,-0.3119,-1.1415,1.3764,-0.8890,0.3251,-0.0653,49.25849172,-122.74692305,1.05999994,
11.9140,0.5262,0.0710,0.0661,-5.3534,-0.3850,-0.4665,-0.8890,0.3251,-0.0653,49.25849172,-122.74692305,1.05999994,
11.9160,0.6459,0.1192,0.0351,-5.3534,-0.3850,-0.4665,-0.8890,0.3251,-0.0653,49.25849172,-122.74692305,1.05999994,
11.9570,0.8063,0.0699,0.0239,-5.3534,-0.3850,-0.4665,-0.8890,0.3251,-0.0653,49.25849172,-122.74692305,1.05999994,
11.9590,0.9910,0.0528,-0.1119,-5.3534,-0.3850,-0.4665,-0.8890,0.3251,-0.0653,49.25849172,-122.74692305,1.05999994,
11.9740,0.9910,0.0528,-0.1119,-5.3534,-0.3850,-0.4665,-0.3114,0.1274,0.3455,49.25849172,-122.74692305,1.05999994,
11.9860,1.1920,0.0866,-0.1633,-5.3534,-0.3850,-0.4665,-0.3114,0.1274,0.3455,49.25849172,-122.74692305,1.05999994,
11.9900,1.1920,0.0866,-0.1633,-4.0769,2.1987,-0.6482,-0.3114,0.1274,0.3455,49.25849172,-122.74692305,1.05999994,
12.0240,1.3097,0.1595,-0.0374,-4.0769,2.1987,-0.6482,-0.3114,0.1274,0.3455,49.25849172,-122.74692305,1.05999994,
12.0280,1.4073,0.0594,-0.0849,-4.0769,2.1987,-0.6482,-0.3114,0.1274,0.3455,49.25849172,-122.74692305,1.05999994,
12.0460,1.4073,0.0594,-0.0849,-4.0769,2.1987,-0.6482,-0.0093,0.0379,0.1318,49.25849172,-122.74692305,1.05999994,
12.0490,1.4078,-0.0493,-0.0160,-4.0769,2.1987,-0.6482,-0.0093,0.0379,0.1318,49.25849172,-122.74692305,1.05999994,
12.0570,1.4078,-0.0493,-0.0160,0.7915,2.4631,-2.0252,-0.0093,0.0379,0.1318,49.25849172,-122.74692305,1.05999994,
12.0600,1.4286,-0.1380,-0.0860,0.7915,2.4631,-2.0252,-0.0093,0.0379,0.1318,49.25849172,-122.74692305,1.05999994,
12.0910,1.5608,-0.2059,-0.0299,0.7915,2.4631,-2.0252,-0.0093,0.0379,0.1318,49.25849172,-122.74692305,1.05999994,
12.1130,1.5711,0.0453,0.2973,0.7915,2.4631,-2.0252,-0.0093,0.0379,0.1318,49.25849172,-122.74692305,1.05999994,
12.1170,1.5711,0.0453,0.2973,0.7915,2.4631,-2.0252,-0.1774,-0.1710,-0.4704,49.25849172,-122.74692305,1.05999994,
12.1280,1.5711,0.0453,0.2973,4.2100,1.2231,-1.5930,-0.1774,-0.1710,-0.4704,49.25849172,-122.74692305,1.05999994,
12.1310,1.3489,-0.1113,0.5679,4.2100,1.2231,-1.5930,-0.1774,-0.1710,-0.4704,49.25849172,-122.74692305,1.05999994,
12.1600,1.0580,-0.2477,0.5144,4.2100,1.2231,-1.5930,-0.1774,-0.1710,-0.4704,49.25849172,-122.74692305,1.05999994,
12.1890,1.1705,-0.3761,0.5051,4.2100,1.2231,-1.5930,-0.1774,-0.1710,-0.4704,49.25849172,-122.74692305,1.05999994,
12.1930,1.1705,-0.3761,0.5051,4.2100,1.2231,-1.5930,-0.0390,-0.5204,-0.1356,49.25849172,-122.74692305,1.05999994,
12.1950,1.4256,-0.4489,0.2182,4.2100,1.2231,-1.5930,-0.0390,-0.5204,-0.1356,49.25849172,-122.74692305,1.05999994,
12.2000,1.4256,-0.4489,0.2182,4.4618,0.1668,2.4042,-0.0390,-0.5204,-0.1356,49.25849172,-122.74692305,1.05999994,
12.2030,1.4964,-0.5225,0.2439,4.4618,0.1668,2.4042,-0.0390,-0.5204,-0.1356,49.25849172,-122.74692305,1.05999994,
12.2260,1.2409,-0.3597,0.5097,4.4618,0.1668,2.4042,-0.0390,-0.5204,-0.1356,49.25849172,-122.74692305,1.05999994,
12.2620,0.9923,-0.2577,0.2828,4.4618,0.1668,2.4042,-0.0390,-0.5204,-0.1356,49.25849172,-122.74692305,1.05999994,
12.2650,0.9923,-0.2577,0.2828,4.4618,0.1668,2.4042,0.4823,-0.3395,0.4769,49.25849172,-122.74692305,1.05999994,
12.2720,0.7897,-0.1317,0.0766,4.4618,0.1668,2.4042,0.4823,-0.3395,0.4769,49.25849172,-122.74692305,1.05999994,
12.2750,0.7897,-0.1317,0.0766,3.2012,-2.4252,2.8122,0.4823,-0.3395,0.4769,49.25849172,-122.74692305,1.05999994,
12.2910,0.5907,-0.0264,0.1311,3.2012,-2.4252,2.8122,0.4823,-0.3395,0.4769,49.25849172,-122.74692305,1.05999994,
12.3310,0.4467,-0.0220,0.1170,3.2012,-2.4252,2.8122,0.4823,-0.3395,0.4769,49.25849172,-122.74692305,1.05999994,
12.3340,0.4467,-0.0220,0.1170,3.2012,-2.4252,2.8122,0.5398,-0.2990,0.7864,49.25849172,-122.74692305,1.05999994,
12.3380,0.3551,-0.0277,0.0629,3.2012,-2.4252,2.8122,0.5398,-0.2990,0.7864,49.25849172,-122.74692305,1.05999994,
12.3410,0.3551,-0.0277,0.0629,-0.1985,0.0606,2.0210,0.5398,-0.2990,0.7864,49.25849172,-122.74692305,1.05999994,
12.3430,0.2684,-0.0313,0.0707,-0.1985,0.0606,2.0210,0.5398,-0.2990,0.7864,49.25849172,-122.74692305,1.05999994,
12.3640,0.2028,-0.0485,0.1077,-0.1985,0.0606,2.0210,0.5398,-0.2990,0.7864,49.25849172,-122.74692305,1.05999994,
12.4010,0.2293,-0.1123,0.1085,-0.1985,0.0606,2.0210,0.5398,-0.2990,0.7864,49.25849172,-122.74692305,1.05999994,
12.4050,0.2293,-0.1123,0.1085,-0.1985,0.0606,2.0210,0.4300,0.4439,0.6797,49.25849172,-122.74692305,1.05999994,
12.4100,0.3771,-0.2233,0.0642,-0.1985,0.0606,2.0210,0.4300,0.4439,0.6797,49.25849172,-122.74692305,1.05999994,
12.4120,0.3771,-0.2233,0.0642,-5.5612,2.3188,-0.0368,0.4300,0.4439,0.6797,49.25849172,-122.74692305,1.05999994,
12.4240,0.6189,-0.3296,-0.0304,-5.5612,2.3188,-0.0368,0.4300,0.4439,0.6797,49.25849172,-122.74692305,1.05999994,
12.4740,0.8752,-0.2300,-0.1870,-5.5612,2.3188,-0.0368,0.4300,0.4439,0.6797,49.25849172,-122.74692305,1.05999994,
12.4790,0.8752,-0.2300,-0.1870,-5.5612,2.3188,-0.0368,0.6358,-0.3362,0.0054,49.25849172,-122.74692305,1.05999994,
12.4820,1.1878,-0.1147,-0.2807,-5.5612,2.3188,-0.0368,0.6358,-0.3362,0.0054,49.25849172,-122.74692305,1.05999994,
12.4840,1.3369,-0.0838,-0.3392,-5.5612,2.3188,-0.0368,0.6358,-0.3362,0.0054,49.25849172,-122.74692305,1.05999994,
12.4860,1.3369,-0.0838,-0.3392,-6.2194,0.9027,-0.0076,0.6358,-0.3362,0.0054,49.25849172,-122.74692305,1.05999994,
12.5450,1.2694,-0.3459,-0.2058,-6.2194,0.9027,-0.0076,0.6358,-0.3362,0.0054,49.25849172,-122.74692305,1.05999994,
12.5500,1.2694,-0.3459,-0.2058,-6.2194,0.9027,-0.0076,0.1728,0.3493,0.0445,49.25849172,-122.74692305,1.05999994,
12.5530,1.3643,-0.7240,-0.0115,-6.2194,0.9027,-0.0076,0.1728,0.3493,0.0445,49.25849172,-122.74692305,1.05999994,
12.5540,1.3643,-0.7240,-0.0115,1.2169,0.8070,-3.2520,0.1728,0.3493,0.0445,49.25849172,-122.74692305,1.05999994,
12.5560,1.4727,-0.5249,-0.2059,1.2169,0.8070,-3.2520,0.1728,0.3493,0.0445,49.25849172,-122.74692305,1.05999994,
12.6120,1.2300,-0.0209,-0.2045,1.2169,0.8070,-3.2520,0.1728,0.3493,0.0445,49.25849172,-122.74692305,1.05999994,
12.6160,1.4014,-0.2891,0.0480,1.2169,0.8070,-3.2520,0.1728,0.3493,0.0445,49.25849172,-122.74692305,1.05999994,
12.6180,1.4565,-0.7555,0.4087,1.2169,0.8070,-3.2520,0.1728,0.3493,0.0445,49.25849172,-122.74692305,1.05999994,
12.6200,1.4565,-0.7555,0.4087,1.2169,0.8070,-3.2520,-0.2951,0.6663,-0.0953,49.25849172,-122.74692305,1.05999994,
12.6270,1.4565,-0.7555,0.4087,4.0022,-2.0110,-3.0118,-0.2951,0.6663,-0.0953,49.25849172,-122.74692305,1.05999994,
12.6300,1.3568,-0.6059,0.4489,4.0022,-2.0110,-3.0118,-0.2951,0.6663,-0.0953,49.25849172,-122.74692305,1.05999994,
12.6870,0.7944,-0.1858,0.1937,4.0022,-2.0110,-3.0118,-0.2951,0.6663,-0.0953,49.25849172,-122.74692305,1.05999994,
12.6930,0.7944,-0.1858,0.1937,4.0022,-2.0110,-3.0118,-0.3062,-0.0247,-0.3067,49.25849172,-122.74692305,1.05999994,
12.6970,0.7497,-0.1251,0.5781,4.0022,-2.0110,-3.0118,-0.3062,-0.0247,-0.3067,49.25849172,-122.74692305,1.05999994,
12.6990,1.1349,-0.2593,0.9502,4.0022,-2.0110,-3.0118,-0.3062,-0.0247,-0.3067,49.25849172,-122.74692305,1.05999994,
12.7030,1.1349,-0.2593,0.9502,4.1048,-2.3338,0.9501,-0.3062,-0.0247,-0.3067,49.25849172,-122.74692305,1.05999994,
12.7580,1.3591,-0.3013,0.8039,4.1048,-2.3338,0.9501,-0.3062,-0.0247,-0.3067,49.25849172,-122.74692305,1.05999994,
12.7620,1.3885,-0.2257,0.3164,4.1048,-2.3338,0.9501,-0.3062,-0.0247,-0.3067,49.25849172,-122.74692305,1.05999994,
12.7640,0.8527,-0.2250,0.1907,4.1048,-2.3338,0.9501,-0.3062,-0.0247,-0.3067,49.25849172,-122.74692305,1.05999994,
12.7660,0.8527,-0.2250,0.1907,4.1048,-2.3338,0.9501,0.1568,-0.2782,-0.7913,49.25849172,-122.74692305,1.05999994,
12.7670,0.8527,-0.2250,0.1907,-0.2029,-0.3050,5.0048,0.1568,-0.2782,-0.7913,49.25849172,-122.74692305,1.05999994,
12.7690,0.5331,-0.2492,0.1868,-0.2029,-0.3050,5.0048,0.1568,-0.2782,-0.7913,49.25849172,-122.74692305,1.05999994,
12.8230,0.3823,-0.2492,0.1215,-0.2029,-0.3050,5.0048,0.1568,-0.2782,-0.7913,49.25849172,-122.74692305,1.05999994,
12.8250,0.3544,-0.1650,0.0573,-0.2029,-0.3050,5.0048,0.1568,-0.2782,-0.7913,49.25849029,-122.74694011,1.14999998,
12.8260,0.3544,-0.1650,0.0573,-0.2029,-0.3050,5.0048,-0.5548,-0.2627,-0.7879,49.25849029,-122.74694011,1.14999998,
12.8380,0.3544,-0.1650,0.0573,0.0853,-1.0487,1.8688,-0.5548,-0.2627,-0.7879,49.25849029,-122.74694011,1.14999998,
12.8400,0.3961,0.0149,-0.0137,0.0853,-1.0487,1.8688,-0.5548,-0.2627,-0.7879,49.25849029,-122.74694011,1.14999998,
12.8620,0.4471,0.0249,-0.0418,0.0853,-1.0487,1.8688,-0.5548,-0.2627,-0.7879,49.25849029,-122.74694011,1.14999998,
12.8920,0.4535,0.0816,-0.0079,0.0853,-1.0487,1.8688,-0.5548,-0.2627,-0.7879,49.25849029,-122.74694011,1.14999998,
12.8950,0.4193,0.1395,0.0652,0.0853,-1.0487,1.8688,-0.5548,-0.2627,-0.7879,49.25849029,-122.74694011,1.14999998,
12.8990,0.4193,0.1395,0.0652,0.0853,-1.0487,1.8688,-0.4096,0.0747,-0.0127,49.25849029,-122.74694011,1.14999998,
12.9080,0.5434,0.0724,0.1976,0.0853,-1.0487,1.8688,-0.4096,0.0747,-0.0127,49.25849029,-122.74694011,1.14999998,
12.9120,0.5434,0.0724,0.1976,-5.7357,0.3433,-0.6433,-0.4096,0.0747,-0.0127,49.25849029,-122.74694011,1.14999998,
12.9590,0.8328,0.0122,0.1906,-5.7357,0.3433,-0.6433,-0.4096,0.0747,-0.0127,49.25849029,-122.74694011,1.14999998,
12.9640,1.1383,0.0304,0.0096,-5.7357,0.3433,-0.6433,-0.4096,0.0747,-0.0127,49.25849029,-122.74694011,1.14999998,
12.9730,1.1383,0.0304,0.0096,-5.7357,0.3433,-0.6433,0.2964,0.2106,0.5687,49.25849029,-122.74694011,1.14999998,
12.9800,1.1383,0.0304,0.0096,-4.7662,2.5482,-0.5214,0.2964,0.2106,0.5687,49.25849029,-122.74694011,1.14999998,
12.9820,1.2598,0.0511,-0.0668,-4.7662,2.5482,-0.5214,0.2964,0.2106,0.5687,49.25849029,-122.74694011,1.14999998,
13.0260,1.2909,-0.1676,-0.1295,-4.7662,2.5482,-0.5214,0.2964,0.2106,0.5687,49.25849029,-122.74694011,1.14999998,
13.0300,1.2603,-0.1910,0.0605,-4.7662,2.5482,-0.5214,0.2964,0.2106,0.5687,49.25849029,-122.74694011,1.14999998,
13.0410,1.2603,-0.1910,0.0605,-4.7662,2.5482,-0.5214,0.0724,-0.0852,0.4391,49.25849029,-122.74694011,1.14999998,
13.0440,1.2956,-0.0439,0.1389,-4.7662,2.5482,-0.5214,0.0724,-0.0852,0.4391,49.25849029,-122.74694011,1.14999998,
13.0500,1.2956,-0.0439,0.1389,1.4768,1.9987,-0.8419,0.0724,-0.0852,0.4391,49.25849029,-122.74694011,1.14999998,
13.0520,1.4704,0.0275,-0.1243,1.4768,1.9987,-0.8419,0.0724,-0.0852,0.4391,49.25849029,-122.74694011,1.14999998,
13.0920,1.5014,0.0917,-0.2460,1.4768,1.9987,-0.8419,0.0724,-0.0852,0.4391,49.25849029,-122.74694011,1.14999998,
13.1120,1.4076,0.0727,0.0122,1.4768,1.9987,-0.8419,0.0724,-0.0852,0.4391,49.25849029,-122.74694011,1.14999998,
13.1150,1.4076,0.0727,0.0122,1.4768,1.9987,-0.8419,0.0275,-0.1378,-0.3174,49.25849029,-122.74694011,1.14999998,
13.1230,1.2943,0.0943,0.3285,1.4768,1.9987,-0.8419,0.0275,-0.1378,-0.3174,49.25849029,-122.74694011,1.14999998,
13.1250,1.2943,0.0943,0.3285,3.6275,0.7872,-1.0019,0.0275,-0.1378,-0.3174,49.25849029,-122.74694011,1.14999998,
13.1590,1.1552,-0.0489,0.5182,3.6275,0.7872,-1.0019,0.0275,-0.1378,-0.3174,49.25849029,-122.74694011,1.14999998,
13.1630,0.9573,-0.2592,0.3824,3.6275,0.7872,-1.0019,0.0275,-0.1378,-0.3174,49.25849029,-122.74694011,1.14999998,
13.1840,1.0092,-0.2602,0.6197,3.6275,0.7872,-1.0019,0.0275,-0.1378,-0.3174,49.25849029,-122.74694011,1.14999998,
13.1880,1.0092,-0.2602,0.6197,3.6275,0.7872,-1.0019,0.0357,-0.0283,-0.0114,49.25849029,-122.74694011,1.14999998,
13.1940,1.3661,-0.4059,0.3716,3.6275,0.7872,-1.0019,0.0357,-0.0283,-0.0114,49.25849029,-122.74694011,1.14999998,
13.1970,1.3661,-0.4059,0.3716,3.9271,2.4230,0.1000,0.0357,-0.0283,-0.0114,49.25849029,-122.74694011,1.14999998,
13.2230,1.6093,-0.6049,0.2734,3.9271,2.4230,0.1000,0.0357,-0.0283,-0.0114,49.25849029,-122.74694011,1.14999998,
13.2550,1.4378,-0.5707,0.4077,3.9271,2.4230,0.1000,0.0357,-0.0283,-0.0114,49.25849029,-122.74694011,1.14999998,
13.2590,1.4378,-0.5707,0.4077,3.9271,2.4230,0.1000,0.3502,-0.6704,0.4100,49.25849029,-122.74694011,1.14999998,
13.2650,1.4378,-0.5707,0.4077,1.3358,-0.8004,3.9078,0.3502,-0.6704,0.4100,49.25849029,-122.74694011,1.14999998,
13.2670,1.1563,-0.3889,0.2322,1.3358,-0.8004,3.9078,0.3502,-0.6704,0.4100,49.25849029,-122.74694011,1.14999998,
13.2920,0.9022,-0.1901,0.1044,1.3358,-0.8004,3.9078,0.3502,-0.6704,0.4100,49.25849029,-122.74694011,1.14999998,
13.3250,0.9022,-0.1901,0.1044,1.3358,-0.8004,3.9078,0.5365,-0.5492,0.6162,49.25849029,-122.74694011,1.14999998,
13.3280,0.6834,-0.0116,0.0960,1.3358,-0.8004,3.9078,0.5365,-0.5492,0.6162,49.25849029,-122.74694011,1.14999998,
13.3290,0.4664,0.0726,0.1141,1.3358,-0.8004,3.9078,0.5365,-0.5492,0.6162,49.25849029,-122.74694011,1.14999998,
13.3350,0.4664,0.0726,0.1141,3.5956,-2.2894,2.3425,0.5365,-0.5492,0.6162,49.25849029,-122.74694011,1.14999998,
13.3370,0.3223,0.0341,0.1052,3.5956,-2.2894,2.3425,0.5365,-0.5492,0.6162,49.25849029,-122.74694011,1.14999998,
13.3580,0.2756,-0.0567,0.0936,3.5956,-2.2894,2.3425,0.5365,-0.5492,0.6162,49.25849029,-122.74694011,1.14999998,
13.3980,0.2756,-0.0567,0.0936,3.5956,-2.2894,2.3425,0.4372,-0.1331,0.7353,49.25849029,-122.74694011,1.14999998,
13.4010,0.2808,-0.1114,0.1142,3.5956,-2.2894,2.3425,0.4372,-0.1331,0.7353,49.25849029,-122.74694011,1.14999998,
13.4070,0.2808,-0.1114,0.1142,-4.0124,2.8894,0.6222,0.4372,-0.1331,0.7353,49.25849029,-122.74694011,1.14999998,
13.4100,0.3027,-0.1143,0.1071,-4.0124,2.8894,0.6222,0.4372,-0.1331,0.7353,49.25849029,-122.74694011,1.14999998,
13.4230,0.2930,-0.1669,0.0678,-4.0124,2.8894,0.6222,0.4372,-0.1331,0.7353,49.25849029,-122.74694011,1.14999998,
13.4700,0.4915,-0.2983,0.0156,-4.0124,2.8894,0.6222,0.4372,-0.1331,0.7353,49.25849029,-122.74694011,1.14999998,
13.4740,0.4915,-0.2983,0.0156,-4.0124,2.8894,0.6222,0.4072,-0.1590,0.0611,49.25849029,-122.74694011,1.14999998,
13.4760,0.7700,-0.3194,-0.1546,-4.0124,2.8894,0.6222,0.4072,-0.1590,0.0611,49.25849029,-122.74694011,1.14999998,
13.4780,1.1103,-0.2077,-0.3019,-4.0124,2.8894,0.6222,0.4072,-0.1590,0.0611,49.25849029,-122.74694011,1.14999998,
13.4800,1.1103,-0.2077,-0.3019,-6.4180,1.7812,0.6451,0.4072,-0.1590,0.0611,49.25849029,-122.74694011,1.14999998,
13.5420,1.3227,-0.1537,-0.2879,-6.4180,1.7812,0.6451,0.4072,-0.1590,0.0611,49.25849029,-122.74694011,1.14999998,
13.5460,1.3227,-0.1537,-0.2879,-6.4180,1.7812,0.6451,0.1959,0.3427,-0.0885,49.25849029,-122.74694011,1.14999998,
13.5480,1.2779,-0.3950,-0.1766,-6.4180,1.7812,0.6451,0.1959,0.3427,-0.0885,49.25849029,-122.74694011,1.14999998,
13.5500,1.3885,-0.6692,-0.0032,-6.4180,1.7812,0.6451,0.1959,0.3427,-0.0885,49.25849029,-122.74694011,1.14999998,
13.5520,1.3885,-0.6692,-0.0032,-2.1108,0.1538,-1.8135,0.1959,0.3427,-0.0885,49.25849029,-122.74694011,1.14999998,
13.6140,1.6370,-0.4761,-0.2783,-2.1108,0.1538,-1.8135,0.1959,0.3427,-0.0885,49.25849029,-122.74694011,1.14999998,
13.6180,1.3214,0.0972,-0.3873,-2.1108,0.1538,-1.8135,0.1959,0.3427,-0.0885,49.25849029,-122.74694011,1.14999998,
13.6200,1.3214,0.0972,-0.3873,-2.1108,0.1538,-1.8135,0.3813,-0.9150,-0.1903,49.25849029,-122.74694011,1.14999998,
13.6230,1.0941,0.3024,-0.4273,-2.1108,0.1538,-1.8135,0.3813,-0.9150,-0.1903,49.25849029,-122.74694011,1.14999998,
13.6250,1.0814,-0.1407,-0.1765,-2.1108,0.1538,-1.8135,0.3813,-0.9150,-0.1903,49.25849029,-122.74694011,1.14999998,
13.6270,1.0814,-0.1407,-0.1765,4.1826,-1.7550,-1.6779,0.3813,-0.9150,-0.1903,49.25849029,-122.74694011,1.14999998,
13.6810,1.1941,-0.5973,0.4401,4.1826,-1.7550,-1.6779,0.3813,-0.9150,-0.1903,49.25849029,-122.74694011,1.14999998,
13.6860,1.1941,-0.5973,0.4401,4.1826,-1.7550,-1.6779,0.2389,2.4232,0.3662,49.25849029,-122.74694011,1.14999998,
13.6880,1.0821,-0.8042,0.7583,4.1826,-1.7550,-1.6779,0.2389,2.4232,0.3662,49.25849029,-122.74694011,1.14999998,
13.6900,1.0976,-0.7024,0.4935,4.1826,-1.7550,-1.6779,0.2389,2.4232,0.3662,49.25849029,-122.74694011,1.14999998,
13.6920,1.0976,-0.7024,0.4935,2.9337,3.1512,-4.9362,0.2389,2.4232,0.3662,49.25849029,-122.74694011,1.14999998,
13.7530,1.0976,-0.7024,0.4935,2.9337,3.1512,-4.9362,0.1201,-0.4440,-0.5714,49.25849029,-122.74694011,1.14999998,
13.7560,0.8322,-0.4173,0.1447,2.9337,3.1512,-4.9362,0.1201,-0.4440,-0.5714,49.25849029,-122.74694011,1.14999998,
13.7580,0.9366,-0.4458,0.8876,2.9337,3.1512,-4.9362,0.1201,-0.4440,-0.5714,49.25849029,-122.74694011,1.14999998,
13.7600,1.2247,-0.3866,0.7589,2.9337,3.1512,-4.9362,0.1201,-0.4440,-0.5714,49.25849029,-122.74694011,1.14999998,
13.7620,1.2247,-0.3866,0.7589,1.3784,-4.0840,3.4895,0.1201,-0.4440,-0.5714,49.25849029,-122.74694011,1.14999998,
13.7640,1.4374,-0.2291,0.2406,1.3784,-4.0840,3.4895,0.1201,-0.4440,-0.5714,49.25849029,-122.74694011,1.14999998,
13.8230,1.4374,-0.2291,0.2406,1.3784,-4.0840,3.4895,-0.3090,-0.5003,-0.9750,49.25849029,-122.74694011,1.14999998,
13.8260,1.0098,-0.2467,0.1648,1.3784,-4.0840,3.4895,-0.3090,-0.5003,-0.9750,49.25849029,-122.74694011,1.14999998,
13.8270,0.6030,-0.2246,0.1526,1.3784,-4.0840,3.4895,-0.3090,-0.5003,-0.9750,49.25849029,-122.74694011,1.14999998,
13.8280,0.4471,-0.2128,0.1515,1.3784,-4.0840,3.4895,-0.3090,-0.5003,-0.9750,49.25849029,-122.74694011,1.14999998,
13.8340,0.4471,-0.2128,0.1515,1.5777,-1.7693,4.5709,-0.3090,-0.5003,-0.9750,49.25849029,-122.74694011,1.14999998,
