time,gFx,gFy,gFz,ax,ay,az,wx,wy,wz,Latitude,Longitude,Speed (m/s)
0.091,0.0486,0.2167,1.0053,0,0,0,0,0,0,0,0,0
0.092,0.0486,0.2167,1.0053,0,0,0,0.1501,0.5938,0.6125,49.2583017,-122.746748,1.48000002
0.149,0.1246,0.206,1.0688,0,0,0,0.1501,0.5938,0.6125,49.2583017,-122.746748,1.48000002
0.149,0.1246,0.206,1.0688,0,0,0,-0.3035,0.0011,0.2451,49.2583017,-122.746748,1.48000002
0.168,0.1246,0.206,1.0688,0,0,0,-0.3035,0.0011,0.2451,49.2583017,-122.746748,1.48000002
0.225,0.1246,0.206,1.0688,0,0,0,-1.0205,0.2415,-0.1373,49.2583017,-122.746748,1.48000002
0.226,0.1362,0.0097,1.4014,0,0,0,-1.0205,0.2415,-0.1373,49.2583017,-122.746748,1.48000002
0.245,0.1362,0.0097,1.4014,0.4177,-0.0116,0.459,-1.0205,0.2415,-0.1373,49.2583017,-122.746748,1.48000002
0.283,-0.0612,-0.0232,1.0948,0.4177,-0.0116,0.459,-1.0205,0.2415,-0.1373,49.2583017,-122.746748,1.48000002
0.284,-0.0612,-0.0232,1.0948,0.4177,-0.0116,0.459,-0.1026,0.9993,0.4882,49.2583017,-122.746748,1.48000002
0.302,-0.0612,-0.0232,1.0948,-0.1013,-1.259,1.8393,-0.1026,0.9993,0.4882,49.2583017,-122.746748,1.48000002
0.35,-0.0612,-0.0232,1.0948,-0.1013,-1.259,1.8393,-0.0478,1.8726,1.5719,49.2583017,-122.746748,1.48000002
0.351,-0.0966,-0.0375,0.9825,-0.1013,-1.259,1.8393,-0.0478,1.8726,1.5719,49.2583017,-122.746748,1.48000002
0.369,-0.0966,-0.0375,0.9825,0.471,-0.9581,-1.1981,-0.0478,1.8726,1.5719,49.2583017,-122.746748,1.48000002
0.427,-0.0966,-0.0375,0.9825,0.471,-0.9581,-1.1981,0.7343,1.2691,1.2789,49.2583017,-122.746748,1.48000002
0.427,-0.1069,0.1063,0.512,0.471,-0.9581,-1.1981,0.7343,1.2691,1.2789,49.2583017,-122.746748,1.48000002
0.446,-0.1069,0.1063,0.512,0.0375,-1.3002,-1.8026,0.7343,1.2691,1.2789,49.2583017,-122.746748,1.48000002
0.484,-0.0727,0.1569,0.172,0.0375,-1.3002,-1.8026,0.7343,1.2691,1.2789,49.2583017,-122.746748,1.48000002
0.485,-0.0727,0.1569,0.172,0.0375,-1.3002,-1.8026,-0.1948,-3.5002,-0.2807,49.2583017,-122.746748,1.48000002
0.504,-0.0727,0.1569,0.172,-2.4069,0.7155,-5.8691,-0.1948,-3.5002,-0.2807,49.2583017,-122.746748,1.48000002
0.562,-0.0727,0.1569,0.172,-2.4069,0.7155,-5.8691,-2.3007,-2.7668,-0.4043,49.2583017,-122.746748,1.48000002
0.562,-0.3899,0.3812,0.8883,-2.4069,0.7155,-5.8691,-2.3007,-2.7668,-0.4043,49.2583017,-122.746748,1.48000002
0.581,-0.3899,0.3812,0.8883,-3.0059,2.0574,-6.5505,-2.3007,-2.7668,-0.4043,49.2583017,-122.746748,1.48000002
0.619,-0.3899,0.3812,0.8883,-3.0059,2.0574,-6.5505,-0.5112,-1.7126,1.1363,49.2583017,-122.746748,1.48000002
0.619,-0.0121,0.0933,1.4208,-3.0059,2.0574,-6.5505,-0.5112,-1.7126,1.1363,49.2583017,-122.746748,1.48000002
0.639,-0.0121,0.0933,1.4208,-5.9022,4.2616,4.4484,-0.5112,-1.7126,1.1363,49.2583017,-122.746748,1.48000002
0.695,-0.0121,0.0933,1.4208,-5.9022,4.2616,4.4484,-0.236,-1.4066,1.6471,49.2583017,-122.746748,1.48000002
0.696,0.4629,-0.0694,1.7756,-5.9022,4.2616,4.4484,-0.236,-1.4066,1.6471,49.2583017,-122.746748,1.48000002
0.716,0.4629,-0.0694,1.7756,-2.1902,0.3812,5.0024,-0.236,-1.4066,1.6471,49.2583017,-122.746748,1.48000002
0.753,0.4629,-0.0694,1.7756,-2.1902,0.3812,5.0024,0.4838,-0.3017,1.1963,49.2583017,-122.746748,1.48000002
0.753,0.4616,-0.1336,1.5797,-2.1902,0.3812,5.0024,0.4838,-0.3017,1.1963,49.2583017,-122.746748,1.48000002
0.772,0.4616,-0.1336,1.5797,2.7122,-0.6297,7.5728,0.4838,-0.3017,1.1963,49.2583017,-122.746748,1.48000002
0.83,0.4616,-0.1336,1.5797,2.7122,-0.6297,7.5728,1.2209,0.6464,0.8546,49.2583017,-122.746748,1.48000002
0.83,0.3969,-0.2013,1.0576,2.7122,-0.6297,7.5728,1.2209,0.6464,0.8546,49.2583017,-122.746748,1.48000002
0.85,0.3969,-0.2013,1.0576,1.9565,-2.2951,4.2681,1.2209,0.6464,0.8546,49.2583017,-122.746748,1.48000002
0.887,0.3969,-0.2013,1.0576,1.9565,-2.2951,4.2681,0.9652,0.5256,0.3669,49.2583017,-122.746748,1.48000002
0.888,0.2541,-0.0068,0.626,1.9565,-2.2951,4.2681,0.9652,0.5256,0.3669,49.2583017,-122.746748,1.48000002
0.906,0.2541,-0.0068,0.626,0.8097,-1.6881,-1.3117,0.9652,0.5256,0.3669,49.2583017,-122.746748,1.48000002
0.964,0.2226,0.0671,0.5895,0.8097,-1.6881,-1.3117,0.9652,0.5256,0.3669,49.25833145,-122.7467245,0
0.965,0.2226,0.0671,0.5895,0.8097,-1.6881,-1.3117,0.5395,0.3977,-0.1067,49.25833145,-122.7467245,0
0.983,0.2226,0.0671,0.5895,0.4433,-0.7098,-4.1433,0.5395,0.3977,-0.1067,49.25833145,-122.7467245,0
1.022,0.2226,0.0671,0.5895,0.4433,-0.7098,-4.1433,0.9833,0.4354,-0.0446,49.25833145,-122.7467245,0
1.022,0.0438,0.1359,0.7557,0.4433,-0.7098,-4.1433,0.9833,0.4354,-0.0446,49.25833145,-122.7467245,0
1.04,0.0438,0.1359,0.7557,-0.2869,-0.8087,-3.227,0.9833,0.4354,-0.0446,49.25833145,-122.7467245,0
1.098,0.1137,0.2078,0.9231,-0.2869,-0.8087,-3.227,0.9833,0.4354,-0.0446,49.25833145,-122.7467245,0
1.098,0.1137,0.2078,0.9231,-0.2869,-0.8087,-3.227,1.2462,0.1755,0.213,49.25833145,-122.7467245,0
1.117,0.1137,0.2078,0.9231,-1.0799,-0.7072,-1.7104,1.2462,0.1755,0.213,49.25833145,-122.7467245,0
1.155,0.1137,0.2078,0.9231,-1.0799,-0.7072,-1.7104,0.6702,-0.3909,0.2762,49.25833145,-122.7467245,0
1.156,0.2643,0.1962,1.0556,-1.0799,-0.7072,-1.7104,0.6702,-0.3909,0.2762,49.25833145,-122.7467245,0
1.175,0.2643,0.1962,1.0556,-0.8889,-0.3852,0.285,0.6702,-0.3909,0.2762,49.25833145,-122.7467245,0
1.232,0.2643,0.1962,1.0556,-0.8889,-0.3852,0.285,-0.2274,-0.5586,0.0685,49.25833145,-122.7467245,0
1.233,0.4787,0.1773,1.1913,-0.8889,-0.3852,0.285,-0.2274,-0.5586,0.0685,49.25833145,-122.7467245,0
1.252,0.4787,0.1773,1.1913,1.1061,-0.3632,1.8474,-0.2274,-0.5586,0.0685,49.25833145,-122.7467245,0
1.29,0.4787,0.1773,1.1913,1.1061,-0.3632,1.8474,-0.6159,0.0784,-0.3221,49.25833145,-122.7467245,0
1.29,0.3801,0.051,1.23,1.1061,-0.3632,1.8474,-0.6159,0.0784,-0.3221,49.25833145,-122.7467245,0
1.309,0.3801,0.051,1.23,2.291,-0.3997,2.3292,-0.6159,0.0784,-0.3221,49.25833145,-122.7467245,0
1.359,0.3801,0.051,1.23,2.291,-0.3997,2.3292,-0.0187,-0.3654,-0.2547,49.25833145,-122.7467245,0
1.359,0.3088,0.0726,0.8073,2.291,-0.3997,2.3292,-0.0187,-0.3654,-0.2547,49.25833145,-122.7467245,0
1.377,0.3088,0.0726,0.8073,0.4917,-1.5261,1.6529,-0.0187,-0.3654,-0.2547,49.25833145,-122.7467245,0
1.434,0.3088,0.0726,0.8073,0.4917,-1.5261,1.6529,0.1508,-0.6991,-0.2471,49.25833145,-122.7467245,0
1.434,0.2269,0.0909,0.479,0.4917,-1.5261,1.6529,0.1508,-0.6991,-0.2471,49.25833145,-122.7467245,0
1.453,0.2269,0.0909,0.479,-0.1884,-1.0483,-2.304,0.1508,-0.6991,-0.2471,49.25833145,-122.7467245,0
1.491,0.2269,0.0909,0.479,-0.1884,-1.0483,-2.304,-0.1452,-0.949,-0.0317,49.25833145,-122.7467245,0
1.492,0.1368,0.21,0.4981,-0.1884,-1.0483,-2.304,-0.1452,-0.949,-0.0317,49.25833145,-122.7467245,0
1.51,0.1368,0.21,0.4981,-1.9249,-0.8629,-4.6172,-0.1452,-0.949,-0.0317,49.25833145,-122.7467245,0
1.568,0.1368,0.21,0.4981,-1.9249,-0.8629,-4.6172,0.0377,-0.2186,0.0608,49.25833145,-122.7467245,0
1.568,0.2444,0.3328,0.7094,-1.9249,-0.8629,-4.6172,0.0377,-0.2186,0.0608,49.25833145,-122.7467245,0
1.587,0.2444,0.3328,0.7094,-2.1029,0.7012,-3.3407,0.0377,-0.2186,0.0608,49.25833145,-122.7467245,0
1.625,0.2444,0.3328,0.7094,-2.1029,0.7012,-3.3407,-0.1058,-0.0753,-0.0631,49.25833145,-122.7467245,0
1.626,0.2719,0.4843,0.9896,-2.1029,0.7012,-3.3407,-0.1058,-0.0753,-0.0631,49.25833145,-122.7467245,0
1.645,0.2719,0.4843,0.9896,-0.6465,1.5816,-0.8378,-0.1058,-0.0753,-0.0631,49.25833145,-122.7467245,0
1.702,0.2719,0.4843,0.9896,-0.6465,1.5816,-0.8378,-0.1778,-0.1331,0.1085,49.25833145,-122.7467245,0
1.702,0.3771,0.4468,1.2645,-0.6465,1.5816,-0.8378,-0.1778,-0.1331,0.1085,49.25833145,-122.7467245,0
1.722,0.3771,0.4468,1.2645,-0.8755,3.1193,2.005,-0.1778,-0.1331,0.1085,49.25833145,-122.7467245,0
1.76,0.3771,0.4468,1.2645,-0.8755,3.1193,2.005,-0.5561,0.6567,0.3559,49.25833145,-122.7467245,0
1.76,0.3949,0.3676,1.3704,-0.8755,3.1193,2.005,-0.5561,0.6567,0.3559,49.25833145,-122.7467245,0
1.78,0.3949,0.3676,1.3704,0.8782,2.7346,3.339,-0.5561,0.6567,0.3559,49.25833145,-122.7467245,0
1.837,0.2944,0.1295,1.2802,0.8782,2.7346,3.339,-0.5561,0.6567,0.3559,49.25833145,-122.7467245,0
1.837,0.2944,0.1295,1.2802,0.8782,2.7346,3.339,0.207,0.1451,0.4673,49.25833145,-122.7467245,0
1.856,0.2944,0.1295,1.2802,0.1804,1.1714,4.8597,0.207,0.1451,0.4673,49.25833145,-122.7467245,0
1.894,0.2944,0.1295,1.2802,0.1804,1.1714,4.8597,0.3264,-0.0285,0.412,49.25836919,-122.7467308,1.46000004
1.894,0.3209,0.1408,0.7459,0.1804,1.1714,4.8597,0.3264,-0.0285,0.412,49.25836919,-122.7467308,1.46000004
1.914,0.3209,0.1408,0.7459,-0.4221,-0.6793,1.6997,0.3264,-0.0285,0.412,49.25836919,-122.7467308,1.46000004
1.97,0.3209,0.1408,0.7459,-0.4221,-0.6793,1.6997,-0.2154,-0.667,0.1668,49.25836919,-122.7467308,1.46000004
1.971,0.2254,0.1477,0.6166,-0.4221,-0.6793,1.6997,-0.2154,-0.667,0.1668,49.25836919,-122.7467308,1.46000004
1.99,0.2254,0.1477,0.6166,-1.0616,-0.0359,-2.3372,-0.2154,-0.667,0.1668,49.25836919,-122.7467308,1.46000004
2.028,0.2254,0.1477,0.6166,-1.0616,-0.0359,-2.3372,-0.0848,-2.0421,0.8802,49.25836919,-122.7467308,1.46000004
2.028,0.2622,0.0887,0.7039,-1.0616,-0.0359,-2.3372,-0.0848,-2.0421,0.8802,49.25836919,-122.7467308,1.46000004
2.047,0.2622,0.0887,0.7039,-3.0901,0.0326,-2.1369,-0.0848,-2.0421,0.8802,49.25836919,-122.7467308,1.46000004
2.105,0.2622,0.0887,0.7039,-3.0901,0.0326,-2.1369,0.8758,-0.3525,0.7265,49.25836919,-122.7467308,1.46000004
2.105,0.5401,0.0641,0.7122,-3.0901,0.0326,-2.1369,0.8758,-0.3525,0.7265,49.25836919,-122.7467308,1.46000004
2.123,0.5401,0.0641,0.7122,-1.3354,-1.064,-1.0647,0.8758,-0.3525,0.7265,49.25836919,-122.7467308,1.46000004
2.162,0.5401,0.0641,0.7122,-1.3354,-1.064,-1.0647,0.463,-0.4097,0.464,49.25836919,-122.7467308,1.46000004
2.163,0.5352,0.131,0.8289,-1.3354,-1.064,-1.0647,0.463,-0.4097,0.464,49.25836919,-122.7467308,1.46000004
2.181,0.5352,0.131,0.8289,-0.5805,-0.3766,-0.5599,0.463,-0.4097,0.464,49.25836919,-122.7467308,1.46000004
2.239,0.7762,0.0444,0.8651,-0.5805,-0.3766,-0.5599,0.463,-0.4097,0.464,49.25836919,-122.7467308,1.46000004
2.239,0.7762,0.0444,0.8651,-0.5805,-0.3766,-0.5599,-0.2967,-0.2978,0.6696,49.25836919,-122.7467308,1.46000004
2.258,0.7762,0.0444,0.8651,0.4766,-0.1615,0.4687,-0.2967,-0.2978,0.6696,49.25836919,-122.7467308,1.46000004
2.296,0.7762,0.0444,0.8651,0.4766,-0.1615,0.4687,-0.5999,-0.2029,0.4183,49.25836919,-122.7467308,1.46000004
2.297,0.868,-0.1541,1.2661,0.4766,-0.1615,0.4687,-0.5999,-0.2029,0.4183,49.25836919,-122.7467308,1.46000004
2.316,0.868,-0.1541,1.2661,2.0088,-0.1609,1.2276,-0.5999,-0.2029,0.4183,49.25836919,-122.7467308,1.46000004
2.373,0.7474,-0.1324,0.6859,2.0088,-0.1609,1.2276,-0.5999,-0.2029,0.4183,49.25836919,-122.7467308,1.46000004
2.374,0.7474,-0.1324,0.6859,2.0088,-0.1609,1.2276,-0.1016,0.5094,0.268,49.25836919,-122.7467308,1.46000004
2.392,0.7474,-0.1324,0.6859,2.8601,-2.4177,3.6979,-0.1016,0.5094,0.268,49.25836919,-122.7467308,1.46000004
2.43,0.5534,0.0135,0.6483,2.8601,-2.4177,3.6979,-0.1016,0.5094,0.268,49.25836919,-122.7467308,1.46000004
2.431,0.5534,0.0135,0.6483,2.8601,-2.4177,3.6979,-0.7037,0.2432,0.0191,49.25836919,-122.7467308,1.46000004
2.45,0.5534,0.0135,0.6483,1.2466,-0.6529,-2.1414,-0.7037,0.2432,0.0191,49.25836919,-122.7467308,1.46000004
2.507,0.4184,0.0775,0.5641,1.2466,-0.6529,-2.1414,-0.7037,0.2432,0.0191,49.25836919,-122.7467308,1.46000004
2.508,0.4184,0.0775,0.5641,1.2466,-0.6529,-2.1414,-0.3124,-0.1268,-0.2188,49.25836919,-122.7467308,1.46000004
2.527,0.4184,0.0775,0.5641,-0.6748,0.3933,-1.7903,-0.3124,-0.1268,-0.2188,49.25836919,-122.7467308,1.46000004
2.565,0.3924,0.1501,0.5301,-0.6748,0.3933,-1.7903,-0.3124,-0.1268,-0.2188,49.25836919,-122.7467308,1.46000004
2.565,0.3924,0.1501,0.5301,-0.6748,0.3933,-1.7903,-0.0939,-0.4753,-0.5029,49.25836919,-122.7467308,1.46000004
2.584,0.3924,0.1501,0.5301,-1.8855,0.7858,-2.6761,-0.0939,-0.4753,-0.5029,49.25836919,-122.7467308,1.46000004
2.642,0.6683,0.2359,0.9192,-1.8855,0.7858,-2.6761,-0.0939,-0.4753,-0.5029,49.25836919,-122.7467308,1.46000004
2.642,0.6683,0.2359,0.9192,-1.8855,0.7858,-2.6761,-0.1084,-1.7285,-0.2769,49.25836919,-122.7467308,1.46000004
2.661,0.6683,0.2359,0.9192,-2.58,1.1474,-1.0529,-0.1084,-1.7285,-0.2769,49.25836919,-122.7467308,1.46000004
2.699,1.0575,0.2553,0.9015,-2.58,1.1474,-1.0529,-0.1084,-1.7285,-0.2769,49.25836919,-122.7467308,1.46000004
2.7,1.0575,0.2553,0.9015,-2.58,1.1474,-1.0529,0.4852,-0.7185,-0.3654,49.25836919,-122.7467308,1.46000004
2.718,1.0575,0.2553,0.9015,1.3826,1.8541,3.3195,0.4852,-0.7185,-0.3654,49.25836919,-122.7467308,1.46000004
2.776,0.9038,0.2505,0.8258,1.3826,1.8541,3.3195,0.4852,-0.7185,-0.3654,49.25836919,-122.7467308,1.46000004
2.776,0.9038,0.2505,0.8258,1.3826,1.8541,3.3195,-0.2855,0.0158,-0.2036,49.25836919,-122.7467308,1.46000004
2.795,0.9038,0.2505,0.8258,2.8975,1.8873,1.1385,-0.2855,0.0158,-0.2036,49.25836919,-122.7467308,1.46000004
2.836,0.6627,0.0359,0.8772,2.8975,1.8873,1.1385,-0.2855,0.0158,-0.2036,49.25836919,-122.7467308,1.46000004
2.837,0.6627,0.0359,0.8772,2.8975,1.8873,1.1385,-0.6468,-0.1165,-0.1031,49.25836919,-122.7467308,1.46000004
2.852,0.6627,0.0359,0.8772,1.2214,1.8002,1.7061,-0.6468,-0.1165,-0.1031,49.25836919,-122.7467308,1.46000004
2.91,0.492,-0.0644,0.5389,1.2214,1.8002,1.7061,-0.6468,-0.1165,-0.1031,49.25840037,-122.7467385,1.70000005
2.911,0.492,-0.0644,0.5389,1.2214,1.8002,1.7061,-1.2297,-0.1797,-0.1568,49.25840037,-122.7467385,1.70000005
2.929,0.492,-0.0644,0.5389,-1.0908,0.1177,0.679,-1.2297,-0.1797,-0.1568,49.25840037,-122.7467385,1.70000005
2.968,0.492,-0.0644,0.5389,-1.0908,0.1177,0.679,-1.1681,0.0015,0.3001,49.25840037,-122.7467385,1.70000005
2.969,0.5112,-0.1172,0.6532,-1.0908,0.1177,0.679,-1.1681,0.0015,0.3001,49.25840037,-122.7467385,1.70000005
2.987,0.5112,-0.1172,0.6532,-2.4784,-0.003,-1.3399,-1.1681,0.0015,0.3001,49.25840037,-122.7467385,1.70000005
3.045,0.5112,-0.1172,0.6532,-2.4784,-0.003,-1.3399,0.0981,-0.0394,0.4656,49.25840037,-122.7467385,1.70000005
3.045,0.5078,-0.1177,0.759,-2.4784,-0.003,-1.3399,0.0981,-0.0394,0.4656,49.25840037,-122.7467385,1.70000005
3.063,0.5078,-0.1177,0.759,-1.958,-0.3627,-0.093,0.0981,-0.0394,0.4656,49.25840037,-122.7467385,1.70000005
3.102,0.4968,-0.0087,0.5285,-1.958,-0.3627,-0.093,0.0981,-0.0394,0.4656,49.25840037,-122.7467385,1.70000005
3.103,0.4968,-0.0087,0.5285,-1.958,-0.3627,-0.093,1.432,-0.4534,0.2846,49.25840037,-122.7467385,1.70000005
3.121,0.4968,-0.0087,0.5285,-2.3699,-0.6947,0.7102,1.432,-0.4534,0.2846,49.25840037,-122.7467385,1.70000005
3.179,0.4968,-0.0087,0.5285,-2.3699,-0.6947,0.7102,0.7145,-0.689,0.1842,49.25840037,-122.7467385,1.70000005
3.18,0.7496,-0.0333,0.5009,-2.3699,-0.6947,0.7102,0.7145,-0.689,0.1842,49.25840037,-122.7467385,1.70000005
3.198,0.7496,-0.0333,0.5009,-2.0534,0.2307,-1.5926,0.7145,-0.689,0.1842,49.25840037,-122.7467385,1.70000005
3.236,0.7496,-0.0333,0.5009,-2.0534,0.2307,-1.5926,-0.1195,-0.2226,0.1797,49.25840037,-122.7467385,1.70000005
3.237,0.9672,-0.137,0.6841,-2.0534,0.2307,-1.5926,-0.1195,-0.2226,0.1797,49.25840037,-122.7467385,1.70000005
3.255,0.9672,-0.137,0.6841,0.7453,-0.3611,-0.642,-0.1195,-0.2226,0.1797,49.25840037,-122.7467385,1.70000005
3.313,1.0727,-0.1734,0.8064,0.7453,-0.3611,-0.642,-0.1195,-0.2226,0.1797,49.25840037,-122.7467385,1.70000005
3.314,1.0727,-0.1734,0.8064,0.7453,-0.3611,-0.642,-0.8245,0.2914,0.0561,49.25840037,-122.7467385,1.70000005
3.332,1.0727,-0.1734,0.8064,2.359,-0.5147,0.5849,-0.8245,0.2914,0.0561,49.25840037,-122.7467385,1.70000005
3.371,1.0363,-0.3452,0.9045,2.359,-0.5147,0.5849,-0.8245,0.2914,0.0561,49.25840037,-122.7467385,1.70000005
3.371,1.0363,-0.3452,0.9045,2.359,-0.5147,0.5849,-0.8971,0.3785,-0.2883,49.25840037,-122.7467385,1.70000005
3.389,1.0363,-0.3452,0.9045,3.5201,-1.2345,2.123,-0.8971,0.3785,-0.2883,49.25840037,-122.7467385,1.70000005
3.447,1.0363,-0.3452,0.9045,3.5201,-1.2345,2.123,-0.2047,0.1404,-0.2781,49.25840037,-122.7467385,1.70000005
3.448,0.9354,-0.2266,0.7761,3.5201,-1.2345,2.123,-0.2047,0.1404,-0.2781,49.25840037,-122.7467385,1.70000005
3.466,0.9354,-0.2266,0.7761,2.1753,-2.3378,1.8428,-0.2047,0.1404,-0.2781,49.25840037,-122.7467385,1.70000005
3.504,0.6806,-0.0592,0.4217,2.1753,-2.3378,1.8428,-0.2047,0.1404,-0.2781,49.25840037,-122.7467385,1.70000005
3.505,0.6806,-0.0592,0.4217,2.1753,-2.3378,1.8428,0.7416,0.1945,-0.8482,49.25840037,-122.7467385,1.70000005
3.524,0.6806,-0.0592,0.4217,1.6944,-1.8869,0.3145,0.7416,0.1945,-0.8482,49.25840037,-122.7467385,1.70000005
3.581,0.6806,-0.0592,0.4217,1.6944,-1.8869,0.3145,0.6899,0.3978,-0.9623,49.25840037,-122.7467385,1.70000005
3.582,0.3113,0.1483,0.1742,1.6944,-1.8869,0.3145,0.6899,0.3978,-0.9623,49.25840037,-122.7467385,1.70000005
3.6,0.3113,0.1483,0.1742,-1.6116,-0.6181,-3.9128,0.6899,0.3978,-0.9623,49.25840037,-122.7467385,1.70000005
3.639,0.3113,0.1483,0.1742,-1.6116,-0.6181,-3.9128,0.0881,0.3263,-0.5544,49.25840037,-122.7467385,1.70000005
3.639,0.2493,0.2898,0.4482,-1.6116,-0.6181,-3.9128,0.0881,0.3263,-0.5544,49.25840037,-122.7467385,1.70000005
3.658,0.2493,0.2898,0.4482,-4.2444,1.0807,-4.7757,0.0881,0.3263,-0.5544,49.25840037,-122.7467385,1.70000005
3.716,0.2493,0.2898,0.4482,-4.2444,1.0807,-4.7757,0.1473,-0.4753,0.0701,49.25840037,-122.7467385,1.70000005
3.716,0.5681,0.3031,0.84,-4.2444,1.0807,-4.7757,0.1473,-0.4753,0.0701,49.25840037,-122.7467385,1.70000005
3.734,0.5681,0.3031,0.84,-4.2336,2.136,-0.8619,0.1473,-0.4753,0.0701,49.25840037,-122.7467385,1.70000005
3.773,1.0433,0.2335,1.0202,-4.2336,2.136,-0.8619,0.1473,-0.4753,0.0701,49.25840037,-122.7467385,1.70000005
3.774,1.0433,0.2335,1.0202,-4.2336,2.136,-0.8619,0.4435,-0.5431,0.2832,49.25840037,-122.7467385,1.70000005
3.792,1.0433,0.2335,1.0202,-0.1636,1.7564,2.5869,0.4435,-0.5431,0.2832,49.25840037,-122.7467385,1.70000005
3.849,1.0433,0.2335,1.0202,-0.1636,1.7564,2.5869,0.547,0.0305,0.147,49.25840037,-122.7467385,1.70000005
3.85,1.0753,0.0711,1.0524,-0.1636,1.7564,2.5869,0.547,0.0305,0.147,49.25842038,-122.7467354,1.67999995
3.869,1.0753,0.0711,1.0524,3.4953,0.7839,3.6513,0.547,0.0305,0.147,49.25842038,-122.7467354,1.67999995
3.907,0.7629,-0.0138,0.7372,3.4953,0.7839,3.6513,0.547,0.0305,0.147,49.25842038,-122.7467354,1.67999995
3.907,0.7629,-0.0138,0.7372,3.4953,0.7839,3.6513,0.6784,-0.0008,0.0264,49.25842038,-122.7467354,1.67999995
3.927,0.7629,-0.0138,0.7372,2.4909,-1.3538,3.6581,0.6784,-0.0008,0.0264,49.25842038,-122.7467354,1.67999995
3.984,0.7629,-0.0138,0.7372,2.4909,-1.3538,3.6581,-0.0827,0.2849,0.4488,49.25842038,-122.7467354,1.67999995
3.984,0.6428,0.0091,0.6191,2.4909,-1.3538,3.6581,-0.0827,0.2849,0.4488,49.25842038,-122.7467354,1.67999995
4.003,0.6428,0.0091,0.6191,-0.3047,-0.9317,-0.2217,-0.0827,0.2849,0.4488,49.25842038,-122.7467354,1.67999995
4.041,0.6428,0.0091,0.6191,-0.3047,-0.9317,-0.2217,0.4512,0.1495,0.5722,49.25842038,-122.7467354,1.67999995
4.042,0.5675,0.0338,0.6142,-0.3047,-0.9317,-0.2217,0.4512,0.1495,0.5722,49.25842038,-122.7467354,1.67999995
4.06,0.5675,0.0338,0.6142,-1.0383,-1.1887,-0.3914,0.4512,0.1495,0.5722,49.25842038,-122.7467354,1.67999995
4.118,0.5675,0.0338,0.6142,-1.0383,-1.1887,-0.3914,1.5174,0.0598,0.4799,49.25842038,-122.7467354,1.67999995
4.118,0.477,0.2203,0.388,-1.0383,-1.1887,-0.3914,1.5174,0.0598,0.4799,49.25842038,-122.7467354,1.67999995
4.137,0.477,0.2203,0.388,-2.0034,-0.8343,-0.8406,1.5174,0.0598,0.4799,49.25842038,-122.7467354,1.67999995
4.176,0.477,0.2203,0.388,-2.0034,-0.8343,-0.8406,1.2387,-0.4954,0.1401,49.25842038,-122.7467354,1.67999995
4.176,0.6602,0.2701,0.4043,-2.0034,-0.8343,-0.8406,1.2387,-0.4954,0.1401,49.25842038,-122.7467354,1.67999995
4.195,0.6602,0.2701,0.4043,-2.5615,0.546,-2.5219,1.2387,-0.4954,0.1401,49.25842038,-122.7467354,1.67999995
4.252,0.841,0.1108,0.4996,-2.5615,0.546,-2.5219,1.2387,-0.4954,0.1401,49.25842038,-122.7467354,1.67999995
4.253,0.841,0.1108,0.4996,-2.5615,0.546,-2.5219,0.4786,-0.2233,-0.2411,49.25842038,-122.7467354,1.67999995
4.271,0.841,0.1108,0.4996,-0.3463,0.0271,-1.6468,0.4786,-0.2233,-0.2411,49.25842038,-122.7467354,1.67999995
4.31,0.841,0.1108,0.4996,-0.3463,0.0271,-1.6468,-0.5583,0.0699,-0.1615,49.25842038,-122.7467354,1.67999995
4.311,0.988,0.037,0.5747,-0.3463,0.0271,-1.6468,-0.5583,0.0699,-0.1615,49.25842038,-122.7467354,1.67999995
4.329,0.988,0.037,0.5747,1.4165,-1.2059,-0.5691,-0.5583,0.0699,-0.1615,49.25842038,-122.7467354,1.67999995
4.377,1.1437,-0.2102,0.9147,1.4165,-1.2059,-0.5691,-0.5583,0.0699,-0.1615,49.25842038,-122.7467354,1.67999995
4.378,1.1437,-0.2102,0.9147,1.4165,-1.2059,-0.5691,-1.8753,0.0996,-0.0305,49.25842038,-122.7467354,1.67999995
4.396,1.1437,-0.2102,0.9147,2.9111,-1.227,-0.1489,-1.8753,0.0996,-0.0305,49.25842038,-122.7467354,1.67999995
4.454,0.9176,-0.087,0.6223,2.9111,-1.227,-0.1489,-1.8753,0.0996,-0.0305,49.25842038,-122.7467354,1.67999995
4.454,0.9176,-0.087,0.6223,2.9111,-1.227,-0.1489,-0.7639,0.1521,0.0648,49.25842038,-122.7467354,1.67999995
4.473,0.9176,-0.087,0.6223,3.2444,-3.1147,2.7129,-0.7639,0.1521,0.0648,49.25842038,-122.7467354,1.67999995
4.511,0.9176,-0.087,0.6223,3.2444,-3.1147,2.7129,-0.9992,-0.043,-0.2057,49.25842038,-122.7467354,1.67999995
4.512,0.8298,0.0902,0.3999,3.2444,-3.1147,2.7129,-0.9992,-0.043,-0.2057,49.25842038,-122.7467354,1.67999995
4.53,0.8298,0.0902,0.3999,1.3752,-0.634,-1.6069,-0.9992,-0.043,-0.2057,49.25842038,-122.7467354,1.67999995
4.588,0.8298,0.0902,0.3999,1.3752,-0.634,-1.6069,-0.8803,0.4553,-0.6209,49.25842038,-122.7467354,1.67999995
4.589,0.5012,0.1679,0.4137,1.3752,-0.634,-1.6069,-0.8803,0.4553,-0.6209,49.25842038,-122.7467354,1.67999995
4.607,0.5012,0.1679,0.4137,0.1691,0.5783,-2.6648,-0.8803,0.4553,-0.6209,49.25842038,-122.7467354,1.67999995
4.645,0.5012,0.1679,0.4137,0.1691,0.5783,-2.6648,-0.5227,0.0175,-0.6855,49.25842038,-122.7467354,1.67999995
4.646,0.4198,0.2636,0.4903,0.1691,0.5783,-2.6648,-0.5227,0.0175,-0.6855,49.25842038,-122.7467354,1.67999995
4.665,0.4198,0.2636,0.4903,-2.768,1.2405,-2.3745,-0.5227,0.0175,-0.6855,49.25842038,-122.7467354,1.67999995
4.722,0.6264,0.2843,0.7497,-2.768,1.2405,-2.3745,-0.5227,0.0175,-0.6855,49.25842038,-122.7467354,1.67999995
4.723,0.6264,0.2843,0.7497,-2.768,1.2405,-2.3745,-0.3847,-0.3457,-0.5504,49.25842038,-122.7467354,1.67999995
4.741,0.6264,0.2843,0.7497,-2.8184,1.9624,-0.9967,-0.3847,-0.3457,-0.5504,49.25842038,-122.7467354,1.67999995
4.78,0.8203,0.2379,0.9119,-2.8184,1.9624,-0.9967,-0.3847,-0.3457,-0.5504,49.25842038,-122.7467354,1.67999995
4.781,0.8203,0.2379,0.9119,-2.8184,1.9624,-0.9967,0.0855,-0.1573,-0.4528,49.25842038,-122.7467354,1.67999995
4.8,0.8203,0.2379,0.9119,-0.2493,1.5377,1.738,0.0855,-0.1573,-0.4528,49.25842038,-122.7467354,1.67999995
4.857,0.7651,0.249,0.9684,-0.2493,1.5377,1.738,0.0855,-0.1573,-0.4528,49.25842038,-122.7467354,1.67999995
4.857,0.7651,0.249,0.9684,-0.2493,1.5377,1.738,0.0199,0.5205,0.1355,49.25843681,-122.7467324,1.63999999
4.877,0.7651,0.249,0.9684,0.961,1.5802,2.0741,0.0199,0.5205,0.1355,49.25843681,-122.7467324,1.63999999
4.914,0.7651,0.249,0.9684,0.961,1.5802,2.0741,0.5957,-0.5602,0.3378,49.25843681,-122.7467324,1.63999999
4.915,0.9184,0.0376,1.102,0.961,1.5802,2.0741,0.5957,-0.5602,0.3378,49.25843681,-122.7467324,1.63999999
4.933,0.9184,0.0376,1.102,0.4215,0.6106,4.2802,0.5957,-0.5602,0.3378,49.25843681,-122.7467324,1.63999999
4.991,0.9184,0.0376,1.102,0.4215,0.6106,4.2802,0.5184,-0.1203,0.4116,49.25843681,-122.7467324,1.63999999
4.992,0.8791,0.0598,0.7433,0.4215,0.6106,4.2802,0.5184,-0.1203,0.4116,49.25843681,-122.7467324,1.63999999
5.009,0.8791,0.0598,0.7433,1.6217,-0.7073,3.1358,0.5184,-0.1203,0.4116,49.25843681,-122.7467324,1.63999999
5.048,0.8791,0.0598,0.7433,1.6217,-0.7073,3.1358,0.5676,0.5551,0.2327,49.25843681,-122.7467324,1.63999999
5.049,0.5925,0.0059,0.6395,1.6217,-0.7073,3.1358,0.5676,0.5551,0.2327,49.25843681,-122.7467324,1.63999999
5.067,0.5925,0.0059,0.6395,0.8996,-0.9859,0.3397,0.5676,0.5551,0.2327,49.25843681,-122.7467324,1.63999999
5.126,0.4174,0.0944,0.4485,0.8996,-0.9859,0.3397,0.5676,0.5551,0.2327,49.25843681,-122.7467324,1.63999999
5.126,0.4174,0.0944,0.4485,0.8996,-0.9859,0.3397,1.3917,0.2769,0.1908,49.25843681,-122.7467324,1.63999999
5.145,0.4174,0.0944,0.4485,-2.0043,-1.6631,-0.7038,1.3917,0.2769,0.1908,49.25843681,-122.7467324,1.63999999
5.183,0.5515,0.1678,0.362,-2.0043,-1.6631,-0.7038,1.3917,0.2769,0.1908,49.25843681,-122.7467324,1.63999999
5.184,0.5515,0.1678,0.362,-2.0043,-1.6631,-0.7038,1.5184,-0.2816,0.2252,49.25843681,-122.7467324,1.63999999
5.203,0.5515,0.1678,0.362,-3.0945,-1.2283,-2.1268,1.5184,-0.2816,0.2252,49.25843681,-122.7467324,1.63999999
5.259,0.7773,0.1274,0.3907,-3.0945,-1.2283,-2.1268,1.5184,-0.2816,0.2252,49.25843681,-122.7467324,1.63999999
5.26,0.7773,0.1274,0.3907,-3.0945,-1.2283,-2.1268,0.7995,-0.4418,0.0353,49.25843681,-122.7467324,1.63999999
5.278,0.7773,0.1274,0.3907,-1.4048,-0.8178,-2.2186,0.7995,-0.4418,0.0353,49.25843681,-122.7467324,1.63999999
5.316,1.0555,0.0613,0.421,-1.4048,-0.8178,-2.2186,0.7995,-0.4418,0.0353,49.25843681,-122.7467324,1.63999999
5.317,1.0555,0.0613,0.421,-1.4048,-0.8178,-2.2186,-0.2424,-0.2666,-0.0226,49.25843681,-122.7467324,1.63999999
5.336,1.0555,0.0613,0.421,1.1492,-1.462,-1.6897,-0.2424,-0.2666,-0.0226,49.25843681,-122.7467324,1.63999999
5.393,1.0555,0.0613,0.421,1.1492,-1.462,-1.6897,-1.6244,0.1299,0.0313,49.25843681,-122.7467324,1.63999999
5.394,1.0504,0.006,0.6736,1.1492,-1.462,-1.6897,-1.6244,0.1299,0.0313,49.25843681,-122.7467324,1.63999999
5.412,1.0504,0.006,0.6736,2.8072,-0.8696,-1.8267,-1.6244,0.1299,0.0313,49.25843681,-122.7467324,1.63999999
5.451,1.0146,-0.1251,0.8336,2.8072,-0.8696,-1.8267,-1.6244,0.1299,0.0313,49.25843681,-122.7467324,1.63999999
5.451,1.0146,-0.1251,0.8336,2.8072,-0.8696,-1.8267,-1.4032,0.0865,-0.1221,49.25843681,-122.7467324,1.63999999
5.47,1.0146,-0.1251,0.8336,3.2475,-1.7308,1.6416,-1.4032,0.0865,-0.1221,49.25843681,-122.7467324,1.63999999
5.527,0.8296,0.018,0.5753,3.2475,-1.7308,1.6416,-1.4032,0.0865,-0.1221,49.25843681,-122.7467324,1.63999999
5.528,0.8296,0.018,0.5753,3.2475,-1.7308,1.6416,-1.0125,0.1036,-0.0882,49.25843681,-122.7467324,1.63999999
5.547,0.8296,0.018,0.5753,1.8801,-1.6037,1.0827,-1.0125,0.1036,-0.0882,49.25843681,-122.7467324,1.63999999
5.585,0.8296,0.018,0.5753,1.8801,-1.6037,1.0827,-0.8885,0.4211,-0.4546,49.25843681,-122.7467324,1.63999999
5.585,0.5788,0.1416,0.4528,1.8801,-1.6037,1.0827,-0.8885,0.4211,-0.4546,49.25843681,-122.7467324,1.63999999
5.604,0.5788,0.1416,0.4528,0.3186,-0.1172,-1.4877,-0.8885,0.4211,-0.4546,49.25843681,-122.7467324,1.63999999
5.662,0.4085,0.2542,0.4544,0.3186,-0.1172,-1.4877,-0.8885,0.4211,-0.4546,49.25843681,-122.7467324,1.63999999
5.662,0.4085,0.2542,0.4544,0.3186,-0.1172,-1.4877,-0.7009,0.1914,-0.7611,49.25843681,-122.7467324,1.63999999
5.68,0.4085,0.2542,0.4544,-2.083,0.9294,-2.3373,-0.7009,0.1914,-0.7611,49.25843681,-122.7467324,1.63999999
5.719,0.4554,0.362,0.6696,-2.083,0.9294,-2.3373,-0.7009,0.1914,-0.7611,49.25843681,-122.7467324,1.63999999
5.719,0.4554,0.362,0.6696,-2.083,0.9294,-2.3373,-0.644,-0.113,-0.5225,49.25843681,-122.7467324,1.63999999
5.738,0.4554,0.362,0.6696,-3.2103,2.139,-1.7433,-0.644,-0.113,-0.5225,49.25843681,-122.7467324,1.63999999
5.795,0.4554,0.362,0.6696,-3.2103,2.139,-1.7433,-0.1475,-0.2149,-0.0549,49.25843681,-122.7467324,1.63999999
5.796,0.6471,0.404,0.8554,-3.2103,2.139,-1.7433,-0.1475,-0.2149,-0.0549,49.25843681,-122.7467324,1.63999999
5.815,0.6471,0.404,0.8554,-2.1846,2.9822,0.8313,-0.1475,-0.2149,-0.0549,49.25843681,-122.7467324,1.63999999
5.854,0.6471,0.404,0.8554,-2.1846,2.9822,0.8313,0.1377,-0.1015,0.2198,49.25843681,-122.7467324,1.63999999
5.855,0.8735,0.345,0.9702,-2.1846,2.9822,0.8313,0.1377,-0.1015,0.2198,49.25843681,-122.7467324,1.63999999
5.872,0.8735,0.345,0.9702,-0.0728,3.1128,2.2762,0.1377,-0.1015,0.2198,49.25843681,-122.7467324,1.63999999
5.93,0.8735,0.345,0.9702,-0.0728,3.1128,2.2762,0.3691,-0.3457,0.3999,49.25845218,-122.7467299,1.47000003
5.931,0.9685,0.1244,1.1753,-0.0728,3.1128,2.2762,0.3691,-0.3457,0.3999,49.25845218,-122.7467299,1.47000003
5.949,0.9685,0.1244,1.1753,1.2982,2.2423,3.6368,0.3691,-0.3457,0.3999,49.25845218,-122.7467299,1.47000003
5.987,0.808,0.0172,0.9517,1.2982,2.2423,3.6368,0.3691,-0.3457,0.3999,49.25845218,-122.7467299,1.47000003
5.988,0.808,0.0172,0.9517,1.2982,2.2423,3.6368,1.0334,-0.1912,0.3381,49.25845218,-122.7467299,1.47000003
6.006,0.808,0.0172,0.9517,1.9622,-0.5255,5.1878,1.0334,-0.1912,0.3381,49.25845218,-122.7467299,1.47000003
6.064,0.808,0.0172,0.9517,1.9622,-0.5255,5.1878,0.784,-0.1488,0.3217,49.25845218,-122.7467299,1.47000003
6.065,0.7282,-0.009,0.8254,1.9622,-0.5255,5.1878,0.784,-0.1488,0.3217,49.25845218,-122.7467299,1.47000003
6.083,0.7282,-0.009,0.8254,-0.0033,-1.0353,2.6035,0.784,-0.1488,0.3217,49.25845218,-122.7467299,1.47000003
6.122,0.7282,-0.009,0.8254,-0.0033,-1.0353,2.6035,0.9875,0.1786,0.179,49.25845218,-122.7467299,1.47000003
6.122,0.5031,0.0385,0.5645,-0.0033,-1.0353,2.6035,0.9875,0.1786,0.179,49.25845218,-122.7467299,1.47000003
6.142,0.5031,0.0385,0.5645,-0.7845,-1.6609,1.3586,0.9875,0.1786,0.179,49.25845218,-122.7467299,1.47000003
6.198,0.5031,0.0385,0.5645,-0.7845,-1.6609,1.3586,1.0474,0.097,0.1041,49.25845218,-122.7467299,1.47000003
6.199,0.4161,0.1165,0.404,-0.7845,-1.6609,1.3586,1.0474,0.097,0.1041,49.25845218,-122.7467299,1.47000003
6.218,0.4161,0.1165,0.404,-3.1068,-1.3195,-1.3364,1.0474,0.097,0.1041,49.25845218,-122.7467299,1.47000003
6.256,0.4161,0.1165,0.404,-3.1068,-1.3195,-1.3364,0.5327,-0.2755,-0.2488,49.25845218,-122.7467299,1.47000003
6.257,0.5793,0.2061,0.3573,-3.1068,-1.3195,-1.3364,0.5327,-0.2755,-0.2488,49.25845218,-122.7467299,1.47000003
6.275,0.5793,0.2061,0.3573,-3.0692,-0.7651,-2.0701,0.5327,-0.2755,-0.2488,49.25845218,-122.7467299,1.47000003
6.333,0.5793,0.2061,0.3573,-3.0692,-0.7651,-2.0701,-0.3402,-0.1073,-0.5134,49.25845218,-122.7467299,1.47000003
6.334,0.7033,0.0903,0.536,-3.0692,-0.7651,-2.0701,-0.3402,-0.1073,-0.5134,49.25845218,-122.7467299,1.47000003
6.352,0.7033,0.0903,0.536,-1.3106,-0.361,-1.9941,-0.3402,-0.1073,-0.5134,49.25845218,-122.7467299,1.47000003
6.39,0.8914,0.0478,0.6543,-1.3106,-0.361,-1.9941,-0.3402,-0.1073,-0.5134,49.25845218,-122.7467299,1.47000003
6.391,0.8914,0.0478,0.6543,-1.3106,-0.361,-1.9941,-0.7287,0.1235,-0.4488,49.25845218,-122.7467299,1.47000003
6.409,0.8914,0.0478,0.6543,0.4872,-1.6291,-0.3631,-0.7287,0.1235,-0.4488,49.25845218,-122.7467299,1.47000003
6.467,0.8914,0.0478,0.6543,0.4872,-1.6291,-0.3631,-1.2065,-0.0381,-0.1392,49.25845218,-122.7467299,1.47000003
6.467,0.9613,0.1228,0.6842,0.4872,-1.6291,-0.3631,-1.2065,-0.0381,-0.1392,49.25845218,-122.7467299,1.47000003
6.486,0.9613,0.1228,0.6842,1.1013,-0.7134,0.2324,-1.2065,-0.0381,-0.1392,49.25845218,-122.7467299,1.47000003
6.524,0.9265,0.0422,0.6958,1.1013,-0.7134,0.2324,-1.2065,-0.0381,-0.1392,49.25845218,-122.7467299,1.47000003
6.525,0.9265,0.0422,0.6958,1.1013,-0.7134,0.2324,-1.8904,-0.9256,-0.328,49.25845218,-122.7467299,1.47000003
6.544,0.9265,0.0422,0.6958,2.1172,-0.0636,1.0861,-1.8904,-0.9256,-0.328,49.25845218,-122.7467299,1.47000003
6.601,0.9265,0.0422,0.6958,2.1172,-0.0636,1.0861,-1.7727,-1.6501,0.2889,49.25845218,-122.7467299,1.47000003
6.601,0.99,0.0178,0.4837,2.1172,-0.0636,1.0861,-1.7727,-1.6501,0.2889,49.25845218,-122.7467299,1.47000003
6.62,0.99,0.0178,0.4837,0.362,0.353,1.5779,-1.7727,-1.6501,0.2889,49.25845218,-122.7467299,1.47000003
6.658,0.99,0.0178,0.4837,0.362,0.353,1.5779,-1.2154,-1.0728,-0.2252,49.25845218,-122.7467299,1.47000003
6.659,0.7212,0.0952,0.4728,0.362,0.353,1.5779,-1.2154,-1.0728,-0.2252,49.25845218,-122.7467299,1.47000003
6.677,0.7212,0.0952,0.4728,0.7046,0.2054,0.1428,-1.2154,-1.0728,-0.2252,49.25845218,-122.7467299,1.47000003
6.735,0.7212,0.0952,0.4728,0.7046,0.2054,0.1428,0.0452,-0.8979,-0.8733,49.25845218,-122.7467299,1.47000003
6.736,0.5212,0.1656,0.3761,0.7046,0.2054,0.1428,0.0452,-0.8979,-0.8733,49.25845218,-122.7467299,1.47000003
6.754,0.5212,0.1656,0.3761,-2.7397,0.3846,0.4835,0.0452,-0.8979,-0.8733,49.25845218,-122.7467299,1.47000003
6.793,0.5212,0.1656,0.3761,-2.7397,0.3846,0.4835,0.1711,-0.4914,-0.9213,49.25845218,-122.7467299,1.47000003
6.794,0.6308,0.3478,0.3242,-2.7397,0.3846,0.4835,0.1711,-0.4914,-0.9213,49.25845218,-122.7467299,1.47000003
6.812,0.6308,0.3478,0.3242,-3.5428,0.6495,-0.2168,0.1711,-0.4914,-0.9213,49.25845218,-122.7467299,1.47000003
6.869,0.9266,0.4042,0.4174,-3.5428,0.6495,-0.2168,0.1711,-0.4914,-0.9213,49.25845218,-122.7467299,1.47000003
6.869,0.9266,0.4042,0.4174,-3.5428,0.6495,-0.2168,0.2758,0.1552,-0.6181,49.25846404,-122.7467255,1.53999996
6.888,0.9266,0.4042,0.4174,-2.0463,1.854,-0.3949,0.2758,0.1552,-0.6181,49.25846404,-122.7467255,1.53999996
6.927,1.2116,0.3504,0.7336,-2.0463,1.854,-0.3949,0.2758,0.1552,-0.6181,49.25846404,-122.7467255,1.53999996
6.929,1.2116,0.3504,0.7336,-2.0463,1.854,-0.3949,0.2156,-0.5506,-0.786,49.25846404,-122.7467255,1.53999996
6.946,1.2116,0.3504,0.7336,1.2481,1.573,1.6053,0.2156,-0.5506,-0.786,49.25846404,-122.7467255,1.53999996
7.003,1.2116,0.3504,0.7336,1.2481,1.573,1.6053,0.6032,-0.5239,-0.5476,49.25846404,-122.7467255,1.53999996
7.004,1.492,0.1939,0.559,1.2481,1.573,1.6053,0.6032,-0.5239,-0.5476,49.25846404,-122.7467255,1.53999996
7.022,1.492,0.1939,0.559,3.3027,0.4712,3.7218,0.6032,-0.5239,-0.5476,49.25846404,-122.7467255,1.53999996
7.061,0.9683,-0.0188,0.5566,3.3027,0.4712,3.7218,0.6032,-0.5239,-0.5476,49.25846404,-122.7467255,1.53999996
7.062,0.9683,-0.0188,0.5566,3.3027,0.4712,3.7218,0.8648,0.6946,-0.2293,49.25846404,-122.7467255,1.53999996
7.08,0.9683,-0.0188,0.5566,6.2433,-1.8005,2.2578,0.8648,0.6946,-0.2293,49.25846404,-122.7467255,1.53999996
7.138,0.9683,-0.0188,0.5566,6.2433,-1.8005,2.2578,1.1793,0.1429,0.3589,49.25846404,-122.7467255,1.53999996
7.138,0.8242,-0.0033,0.324,6.2433,-1.8005,2.2578,1.1793,0.1429,0.3589,49.25846404,-122.7467255,1.53999996
7.157,0.8242,-0.0033,0.324,-0.6126,-3.5283,2.0324,1.1793,0.1429,0.3589,49.25846404,-122.7467255,1.53999996
7.195,0.8242,-0.0033,0.324,-0.6126,-3.5283,2.0324,1.0498,0.2596,0.0854,49.25846404,-122.7467255,1.53999996
7.196,0.5914,0.2298,0.0435,-0.6126,-3.5283,2.0324,1.0498,0.2596,0.0854,49.25846404,-122.7467255,1.53999996
7.214,0.5914,0.2298,0.0435,-1.2652,-2.2633,-1.397,1.0498,0.2596,0.0854,49.25846404,-122.7467255,1.53999996
7.272,0.4835,0.3042,0.1482,-1.2652,-2.2633,-1.397,1.0498,0.2596,0.0854,49.25846404,-122.7467255,1.53999996
7.273,0.4835,0.3042,0.1482,-1.2652,-2.2633,-1.397,1.2753,0.8972,0.2015,49.25846404,-122.7467255,1.53999996
7.291,0.4835,0.3042,0.1482,-3.2405,-0.8948,-2.6917,1.2753,0.8972,0.2015,49.25846404,-122.7467255,1.53999996
7.329,0.4835,0.3042,0.1482,-3.2405,-0.8948,-2.6917,1.0205,0.7268,-0.2275,49.25846404,-122.7467255,1.53999996
7.33,0.5846,0.4747,0.301,-3.2405,-0.8948,-2.6917,1.0205,0.7268,-0.2275,49.25846404,-122.7467255,1.53999996
7.358,0.5846,0.4747,0.301,-3.4123,-0.2583,-1.7958,1.0205,0.7268,-0.2275,49.25846404,-122.7467255,1.53999996
7.396,0.8413,0.5635,0.3678,-3.4123,-0.2583,-1.7958,1.0205,0.7268,-0.2275,49.25846404,-122.7467255,1.53999996
7.397,0.8413,0.5635,0.3678,-3.4123,-0.2583,-1.7958,0.7451,0.9033,-0.4015,49.25846404,-122.7467255,1.53999996
7.416,0.8413,0.5635,0.3678,-1.0789,0.6712,-0.7334,0.7451,0.9033,-0.4015,49.25846404,-122.7467255,1.53999996
7.473,0.8413,0.5635,0.3678,-1.0789,0.6712,-0.7334,-0.089,1.2456,0.1523,49.25846404,-122.7467255,1.53999996
7.473,1.198,0.7363,0.1091,-1.0789,0.6712,-0.7334,-0.089,1.2456,0.1523,49.25846404,-122.7467255,1.53999996
7.492,1.198,0.7363,0.1091,1.317,2.5948,-1.7564,-0.089,1.2456,0.1523,49.25846404,-122.7467255,1.53999996
7.531,1.198,0.7363,0.1091,1.317,2.5948,-1.7564,-2.204,2.0713,-0.4614,49.25846404,-122.7467255,1.53999996
7.531,1.379,0.5572,0.5234,1.317,2.5948,-1.7564,-2.204,2.0713,-0.4614,49.25846404,-122.7467255,1.53999996
7.55,1.379,0.5572,0.5234,5.8991,3.6934,-5.1,-2.204,2.0713,-0.4614,49.25846404,-122.7467255,1.53999996
7.607,1.379,0.5572,0.5234,5.8991,3.6934,-5.1,-1.3708,2.0966,-1.4763,49.25846404,-122.7467255,1.53999996
7.608,0.8934,0.1385,0.829,5.8991,3.6934,-5.1,-1.3708,2.0966,-1.4763,49.25846404,-122.7467255,1.53999996
7.626,0.8934,0.1385,0.829,7.195,0.8499,-0.2216,-1.3708,2.0966,-1.4763,49.25846404,-122.7467255,1.53999996
7.665,0.8934,0.1385,0.829,7.195,0.8499,-0.2216,-0.8568,0.1926,-0.42,49.25846404,-122.7467255,1.53999996
7.665,0.8481,0.0648,0.8321,7.195,0.8499,-0.2216,-0.8568,0.1926,-0.42,49.25846404,-122.7467255,1.53999996
7.684,0.8481,0.0648,0.8321,2.4323,-2.0727,0.5777,-0.8568,0.1926,-0.42,49.25846404,-122.7467255,1.53999996
7.742,0.8481,0.0648,0.8321,2.4323,-2.0727,0.5777,-0.6412,-0.6535,-0.2254,49.25846404,-122.7467255,1.53999996
7.742,0.6198,0.0378,0.5592,2.4323,-2.0727,0.5777,-0.6412,-0.6535,-0.2254,49.25846404,-122.7467255,1.53999996
7.761,0.6198,0.0378,0.5592,2.3991,-2.6161,0.0518,-0.6412,-0.6535,-0.2254,49.25846404,-122.7467255,1.53999996
7.799,0.3261,0.1856,0.4354,2.3991,-2.6161,0.0518,-0.6412,-0.6535,-0.2254,49.25846404,-122.7467255,1.53999996
7.8,0.3261,0.1856,0.4354,2.3991,-2.6161,0.0518,-0.3857,-0.282,-0.5596,49.25846404,-122.7467255,1.53999996
7.818,0.3261,0.1856,0.4354,-0.8466,-2.2598,-1.9397,-0.3857,-0.282,-0.5596,49.25846404,-122.7467255,1.53999996
7.876,0.3261,0.1856,0.4354,-0.8466,-2.2598,-1.9397,-0.4684,-0.5363,-0.441,49.25846404,-122.7467255,1.53999996
7.877,0.2464,0.3268,0.4233,-0.8466,-2.2598,-1.9397,-0.4684,-0.5363,-0.441,49.25847894,-122.7467248,1.45000005
7.895,0.2464,0.3268,0.4233,-3.744,-0.4248,-2.8642,-0.4684,-0.5363,-0.441,49.25847894,-122.7467248,1.45000005
7.933,0.4115,0.3709,0.6399,-3.744,-0.4248,-2.8642,-0.4684,-0.5363,-0.441,49.25847894,-122.7467248,1.45000005
7.934,0.4115,0.3709,0.6399,-3.744,-0.4248,-2.8642,-0.5042,-1.1466,-0.2746,49.25847894,-122.7467248,1.45000005
7.953,0.4115,0.3709,0.6399,-3.6794,0.7301,-1.8552,-0.5042,-1.1466,-0.2746,49.25847894,-122.7467248,1.45000005
8.01,0.6864,0.4221,0.7592,-3.6794,0.7301,-1.8552,-0.5042,-1.1466,-0.2746,49.25847894,-122.7467248,1.45000005
8.011,0.6864,0.4221,0.7592,-3.6794,0.7301,-1.8552,-0.1325,-1.3297,0.2727,49.25847894,-122.7467248,1.45000005
8.029,0.6864,0.4221,0.7592,-2.7958,1.3259,1.0355,-0.1325,-1.3297,0.2727,49.25847894,-122.7467248,1.45000005
8.068,0.7917,0.4135,0.7643,-2.7958,1.3259,1.0355,-0.1325,-1.3297,0.2727,49.25847894,-122.7467248,1.45000005
8.069,0.7917,0.4135,0.7643,-2.7958,1.3259,1.0355,0.4911,-1.5363,0.3827,49.25847894,-122.7467248,1.45000005
8.087,0.7917,0.4135,0.7643,-0.5668,1.4776,2.7251,0.4911,-1.5363,0.3827,49.25847894,-122.7467248,1.45000005
8.145,0.7917,0.4135,0.7643,-0.5668,1.4776,2.7251,-0.0593,-1.8625,0.3949,49.25847894,-122.7467248,1.45000005
8.145,1.0446,0.2847,0.3239,-0.5668,1.4776,2.7251,-0.0593,-1.8625,0.3949,49.25847894,-122.7467248,1.45000005
8.163,1.0446,0.2847,0.3239,0.0381,1.6548,2.2045,-0.0593,-1.8625,0.3949,49.25847894,-122.7467248,1.45000005
8.202,1.1816,0.005,0.678,0.0381,1.6548,2.2045,-0.0593,-1.8625,0.3949,49.25847894,-122.7467248,1.45000005
8.203,1.1816,0.005,0.678,0.0381,1.6548,2.2045,-0.2011,-0.3263,-0.1012,49.25847894,-122.7467248,1.45000005
8.221,1.1816,0.005,0.678,3.07,-0.5018,-0.5354,-0.2011,-0.3263,-0.1012,49.25847894,-122.7467248,1.45000005
8.279,0.8104,0.1705,0.4174,3.07,-0.5018,-0.5354,-0.2011,-0.3263,-0.1012,49.25847894,-122.7467248,1.45000005
8.279,0.8104,0.1705,0.4174,3.07,-0.5018,-0.5354,0.6665,0.6619,0.1031,49.25847894,-122.7467248,1.45000005
8.297,0.8104,0.1705,0.4174,1.8037,-2.3638,2.3421,0.6665,0.6619,0.1031,49.25847894,-122.7467248,1.45000005
8.336,0.6253,0.315,0.1441,1.8037,-2.3638,2.3421,0.6665,0.6619,0.1031,49.25847894,-122.7467248,1.45000005
8.337,0.6253,0.315,0.1441,1.8037,-2.3638,2.3421,0.3515,-0.0455,0.9366,49.25847894,-122.7467248,1.45000005
8.355,0.6253,0.315,0.1441,-1.4852,0.4054,-1.2769,0.3515,-0.0455,0.9366,49.25847894,-122.7467248,1.45000005
8.413,0.8338,0.2936,-0.1067,-1.4852,0.4054,-1.2769,0.3515,-0.0455,0.9366,49.25847894,-122.7467248,1.45000005
8.414,0.8338,0.2936,-0.1067,-1.4852,0.4054,-1.2769,-0.1885,-1.2091,1.1911,49.25847894,-122.7467248,1.45000005
8.431,0.8338,0.2936,-0.1067,-2.0275,1.9515,-2.1122,-0.1885,-1.2091,1.1911,49.25847894,-122.7467248,1.45000005
8.47,0.8338,0.2936,-0.1067,-2.0275,1.9515,-2.1122,-1.3971,-1.6568,0.3792,49.25847894,-122.7467248,1.45000005
8.471,0.8227,0.1554,-0.1015,-2.0275,1.9515,-2.1122,-1.3971,-1.6568,0.3792,49.25847894,-122.7467248,1.45000005
8.489,0.8227,0.1554,-0.1015,-1.3196,1.6866,-4.673,-1.3971,-1.6568,0.3792,49.25847894,-122.7467248,1.45000005
8.546,0.8227,0.1554,-0.1015,-1.3196,1.6866,-4.673,-0.8512,-0.7766,-0.2411,49.25847894,-122.7467248,1.45000005
8.547,0.907,0.1031,0.5629,-1.3196,1.6866,-4.673,-0.8512,-0.7766,-0.2411,49.25847894,-122.7467248,1.45000005
8.566,0.907,0.1031,0.5629,-0.884,-0.0654,-1.5422,-0.8512,-0.7766,-0.2411,49.25847894,-122.7467248,1.45000005
8.606,1.3394,0.3193,0.0668,-0.884,-0.0654,-1.5422,-0.8512,-0.7766,-0.2411,49.25847894,-122.7467248,1.45000005
8.606,1.3394,0.3193,0.0668,-0.884,-0.0654,-1.5422,0.3501,0.7425,-0.4424,49.25847894,-122.7467248,1.45000005
8.623,1.3394,0.3193,0.0668,0.9,0.8094,3.9065,0.3501,0.7425,-0.4424,49.25847894,-122.7467248,1.45000005
8.681,1.0469,-0.004,0.2071,0.9,0.8094,3.9065,0.3501,0.7425,-0.4424,49.25847894,-122.7467248,1.45000005
8.681,1.0469,-0.004,0.2071,0.9,0.8094,3.9065,-2.7801,0.1982,0.9604,49.25847894,-122.7467248,1.45000005
8.7,1.0469,-0.004,0.2071,2.995,3.2862,-4.0395,-2.7801,0.1982,0.9604,49.25847894,-122.7467248,1.45000005
8.738,1.0469,-0.004,0.2071,2.995,3.2862,-4.0395,-0.7217,-0.1184,0.3095,49.25847894,-122.7467248,1.45000005
8.739,1.5047,-0.4065,0.1783,2.995,3.2862,-4.0395,-0.7217,-0.1184,0.3095,49.25847894,-122.7467248,1.45000005
8.757,1.5047,-0.4065,0.1783,2.3308,-1.9804,0.565,-0.7217,-0.1184,0.3095,49.25847894,-122.7467248,1.45000005
8.818,1.5047,-0.4065,0.1783,2.3308,-1.9804,0.565,-0.9753,-1.4805,-0.5911,49.25847894,-122.7467248,1.45000005
8.818,0.9354,0.0309,0.1972,2.3308,-1.9804,0.565,-0.9753,-1.4805,-0.5911,49.25847894,-122.7467248,1.45000005
8.834,0.9354,0.0309,0.1972,3.9008,-3.2593,-0.0427,-0.9753,-1.4805,-0.5911,49.25847894,-122.7467248,1.45000005
8.872,0.752,0.1053,-0.0367,3.9008,-3.2593,-0.0427,-0.9753,-1.4805,-0.5911,49.25847894,-122.7467248,1.45000005
8.873,0.752,0.1053,-0.0367,3.9008,-3.2593,-0.0427,-1.6788,-2.3313,0.5467,49.25849494,-122.7467246,1.46000004
8.891,0.752,0.1053,-0.0367,-1.7532,2.0026,1.156,-1.6788,-2.3313,0.5467,49.25849494,-122.7467246,1.46000004
8.949,0.6955,-0.0099,-0.0019,-1.7532,2.0026,1.156,-1.6788,-2.3313,0.5467,49.25849494,-122.7467246,1.46000004
8.95,0.6955,-0.0099,-0.0019,-1.7532,2.0026,1.156,-1.1069,-2.7605,-0.317,49.25849494,-122.7467246,1.46000004
8.968,0.6955,-0.0099,-0.0019,-2.0046,0.3444,2.0103,-1.1069,-2.7605,-0.317,49.25849494,-122.7467246,1.46000004
9.007,0.6955,-0.0099,-0.0019,-2.0046,0.3444,2.0103,-1.2434,-4.309,-0.3664,49.25849494,-122.7467246,1.46000004
9.007,0.5473,0.2353,0.0823,-2.0046,0.3444,2.0103,-1.2434,-4.309,-0.3664,49.25849494,-122.7467246,1.46000004
9.026,0.5473,0.2353,0.0823,-1.7792,0.0892,5.0893,-1.2434,-4.309,-0.3664,49.25849494,-122.7467246,1.46000004
9.083,0.5473,0.2353,0.0823,-1.7792,0.0892,5.0893,-0.9344,-5.5031,0.8947,49.25849494,-122.7467246,1.46000004
9.084,0.6998,0.1423,-0.7228,-1.7792,0.0892,5.0893,-0.9344,-5.5031,0.8947,49.25849494,-122.7467246,1.46000004
9.102,0.6998,0.1423,-0.7228,-0.8062,2.6081,6.1407,-0.9344,-5.5031,0.8947,49.25849494,-122.7467246,1.46000004
9.141,0.8806,-0.02,-1.0339,-0.8062,2.6081,6.1407,-0.9344,-5.5031,0.8947,49.25849494,-122.7467246,1.46000004
9.142,0.8806,-0.02,-1.0339,-0.8062,2.6081,6.1407,-0.2929,-2.2449,0.9157,49.25849494,-122.7467246,1.46000004
9.16,0.8806,-0.02,-1.0339,2.58,0.6444,-0.4489,-0.2929,-2.2449,0.9157,49.25849494,-122.7467246,1.46000004
9.217,0.8806,-0.02,-1.0339,2.58,0.6444,-0.4489,-0.5822,-3.3927,0.5488,49.25849494,-122.7467246,1.46000004
9.218,0.7856,0.0486,-1.1003,2.58,0.6444,-0.4489,-0.5822,-3.3927,0.5488,49.25849494,-122.7467246,1.46000004
9.237,0.7856,0.0486,-1.1003,5.253,-0.3989,-0.5466,-0.5822,-3.3927,0.5488,49.25849494,-122.7467246,1.46000004
9.275,0.5807,-0.1569,-1.1174,5.253,-0.3989,-0.5466,-0.5822,-3.3927,0.5488,49.25849494,-122.7467246,1.46000004
9.276,0.5807,-0.1569,-1.1174,5.253,-0.3989,-0.5466,-1.1749,-4.0314,-1.0202,49.25849494,-122.7467246,1.46000004
9.294,0.5807,-0.1569,-1.1174,7.895,-1.1353,-2.228,-1.1749,-4.0314,-1.0202,49.25849494,-122.7467246,1.46000004
9.351,0.5807,-0.1569,-1.1174,7.895,-1.1353,-2.228,-2.6789,-4.2688,-2.8212,49.25849494,-122.7467246,1.46000004
9.352,-0.2945,-0.0557,-1.0429,7.895,-1.1353,-2.228,-2.6789,-4.2688,-2.8212,49.25849494,-122.7467246,1.46000004
9.371,-0.2945,-0.0557,-1.0429,4.5148,-4.6368,-0.9367,-2.6789,-4.2688,-2.8212,49.25849494,-122.7467246,1.46000004
9.41,-0.3149,0.0738,-0.6965,4.5148,-4.6368,-0.9367,-2.6789,-4.2688,-2.8212,49.25849494,-122.7467246,1.46000004
9.41,-0.3149,0.0738,-0.6965,4.5148,-4.6368,-0.9367,-2.9513,-0.7535,-3.0305,49.25849494,-122.7467246,1.46000004
9.428,-0.3149,0.0738,-0.6965,-0.4351,-4.1089,-2.1052,-2.9513,-0.7535,-3.0305,49.25849494,-122.7467246,1.46000004
9.486,-0.4257,0.3377,-0.2409,-0.4351,-4.1089,-2.1052,-2.9513,-0.7535,-3.0305,49.25849494,-122.7467246,1.46000004
9.487,-0.4257,0.3377,-0.2409,-0.4351,-4.1089,-2.1052,-0.2356,-0.8368,-3.2021,49.25849494,-122.7467246,1.46000004
9.505,-0.4257,0.3377,-0.2409,1.0788,-1.2597,3.3838,-0.2356,-0.8368,-3.2021,49.25849494,-122.7467246,1.46000004
9.543,-0.4257,0.3377,-0.2409,1.0788,-1.2597,3.3838,0.5899,-4.14,-2.031,49.25849494,-122.7467246,1.46000004
9.544,-0.5228,0.2541,-0.6062,1.0788,-1.2597,3.3838,0.5899,-4.14,-2.031,49.25849494,-122.7467246,1.46000004
9.562,-0.5228,0.2541,-0.6062,2.4523,1.5617,3.5152,0.5899,-4.14,-2.031,49.25849494,-122.7467246,1.46000004
9.62,-0.7866,0.1282,-0.7024,2.4523,1.5617,3.5152,0.5899,-4.14,-2.031,49.25849494,-122.7467246,1.46000004
9.621,-0.7866,0.1282,-0.7024,2.4523,1.5617,3.5152,-0.6625,-1.6117,-1.3201,49.25849494,-122.7467246,1.46000004
9.639,-0.7866,0.1282,-0.7024,1.725,0.3166,-1.3911,-0.6625,-1.6117,-1.3201,49.25849494,-122.7467246,1.46000004
9.678,-0.9585,-0.1048,-0.5435,1.725,0.3166,-1.3911,-0.6625,-1.6117,-1.3201,49.25849494,-122.7467246,1.46000004
9.678,-0.9585,-0.1048,-0.5435,1.725,0.3166,-1.3911,-0.883,-1.2232,-0.8352,49.25849494,-122.7467246,1.46000004
9.697,-0.9585,-0.1048,-0.5435,-0.5126,-0.9711,-0.813,-0.883,-1.2232,-0.8352,49.25849494,-122.7467246,1.46000004
9.755,-0.9585,-0.1048,-0.5435,-0.5126,-0.9711,-0.813,-0.1967,-1.5859,-1.2021,49.25849494,-122.7467246,1.46000004
9.755,-1.2244,-0.1824,-0.4176,-0.5126,-0.9711,-0.813,-0.1967,-1.5859,-1.2021,49.25849494,-122.7467246,1.46000004
9.773,-1.2244,-0.1824,-0.4176,-1.4601,-2.2556,-1.2099,-0.1967,-1.5859,-1.2021,49.25849494,-122.7467246,1.46000004
9.812,-1.2244,-0.1824,-0.4176,-1.4601,-2.2556,-1.2099,0.33,-1.347,-0.964,49.25849494,-122.7467246,1.46000004
9.812,-1.3597,-0.3573,-0.4333,-1.4601,-2.2556,-1.2099,0.33,-1.347,-0.964,49.25849494,-122.7467246,1.46000004
9.832,-1.3597,-0.3573,-0.4333,-3.9049,-2.3653,-0.8851,0.33,-1.347,-0.964,49.25849494,-122.7467246,1.46000004
9.889,-1.3597,-0.3573,-0.4333,-3.9049,-2.3653,-0.8851,0.1587,-2.0034,-1.5278,49.25849494,-122.7467246,1.46000004
9.889,-1.0209,-0.3935,-0.238,-3.9049,-2.3653,-0.8851,0.1587,-2.0034,-1.5278,49.25850858,-122.7467197,1.21000004
9.908,-1.0209,-0.3935,-0.238,-2.9114,-3.0955,-1.4798,0.1587,-2.0034,-1.5278,49.25850858,-122.7467197,1.21000004
9.947,-1.0209,-0.3935,-0.238,-2.9114,-3.0955,-1.4798,-0.6725,-1.9793,-1.4835,49.25850858,-122.7467197,1.21000004
9.948,-0.7562,0.0444,0.0664,-2.9114,-3.0955,-1.4798,-0.6725,-1.9793,-1.4835,49.25850858,-122.7467197,1.21000004
9.966,-0.7562,0.0444,0.0664,-0.1138,-1.2802,-1.4137,-0.6725,-1.9793,-1.4835,49.25850858,-122.7467197,1.21000004
10.023,-0.7562,0.0444,0.0664,-0.1138,-1.2802,-1.4137,1.0606,-1.5765,-1.6039,49.25850858,-122.7467197,1.21000004
10.024,-0.7057,0.2196,0.0254,-0.1138,-1.2802,-1.4137,1.0606,-1.5765,-1.6039,49.25850858,-122.7467197,1.21000004
10.042,-0.7057,0.2196,0.0254,2.901,4.0545,1.6846,1.0606,-1.5765,-1.6039,49.25850858,-122.7467197,1.21000004
10.08,-0.7057,0.2196,0.0254,2.901,4.0545,1.6846,1.5177,-0.1067,-0.6515,49.25850858,-122.7467197,1.21000004
10.081,-0.9723,0.2248,0.0074,2.901,4.0545,1.6846,1.5177,-0.1067,-0.6515,49.25850858,-122.7467197,1.21000004
10.1,-0.9723,0.2248,0.0074,1.3364,5.058,-0.5368,1.5177,-0.1067,-0.6515,49.25850858,-122.7467197,1.21000004
10.157,-1.3194,0.2164,0.0423,1.3364,5.058,-0.5368,1.5177,-0.1067,-0.6515,49.25850858,-122.7467197,1.21000004
10.158,-1.3194,0.2164,0.0423,1.3364,5.058,-0.5368,1.5832,0.6492,0.0756,49.25850858,-122.7467197,1.21000004
10.176,-1.3194,0.2164,0.0423,-1.368,4.7752,0.0491,1.5832,0.6492,0.0756,49.25850858,-122.7467197,1.21000004
10.215,-1.3194,0.2164,0.0423,-1.368,4.7752,0.0491,1.6424,0.9836,0.5643,49.25850858,-122.7467197,1.21000004
10.216,-1.5331,0.0142,-0.0388,-1.368,4.7752,0.0491,1.6424,0.9836,0.5643,49.25850858,-122.7467197,1.21000004
10.234,-1.5331,0.0142,-0.0388,-4.342,3.7389,0.9656,1.6424,0.9836,0.5643,49.25850858,-122.7467197,1.21000004
10.292,-1.4273,-0.0931,-0.3164,-4.342,3.7389,0.9656,1.6424,0.9836,0.5643,49.25850858,-122.7467197,1.21000004
10.293,-1.4273,-0.0931,-0.3164,-4.342,3.7389,0.9656,0.3337,1.201,0.7418,49.25850858,-122.7467197,1.21000004
10.311,-1.4273,-0.0931,-0.3164,-5.5005,1.1626,-0.183,0.3337,1.201,0.7418,49.25850858,-122.7467197,1.21000004
10.359,-1.4273,-0.0931,-0.3164,-5.5005,1.1626,-0.183,-1.1912,0.1832,1.197,49.25850858,-122.7467197,1.21000004
10.359,-1.3654,-0.0894,-0.3524,-5.5005,1.1626,-0.183,-1.1912,0.1832,1.197,49.25850858,-122.7467197,1.21000004
10.378,-1.3654,-0.0894,-0.3524,-4.3539,-0.1165,-2.417,-1.1912,0.1832,1.197,49.25850858,-122.7467197,1.21000004
10.417,-1.3654,-0.0894,-0.3524,-4.3539,-0.1165,-2.417,-0.7913,-0.6345,1.127,49.25850858,-122.7467197,1.21000004
10.417,-1.0877,-0.1372,-0.3686,-4.3539,-0.1165,-2.417,-0.7913,-0.6345,1.127,49.25850858,-122.7467197,1.21000004
10.435,-1.0877,-0.1372,-0.3686,-2.2648,-1.3662,-2.6444,-0.7913,-0.6345,1.127,49.25850858,-122.7467197,1.21000004
10.493,-1.0877,-0.1372,-0.3686,-2.2648,-1.3662,-2.6444,-0.9027,-0.5801,1.1928,49.25850858,-122.7467197,1.21000004
10.494,-0.7619,-0.2412,-0.3929,-2.2648,-1.3662,-2.6444,-0.9027,-0.5801,1.1928,49.25850858,-122.7467197,1.21000004
10.512,-0.7619,-0.2412,-0.3929,-0.7124,-2.3123,-3.6576,-0.9027,-0.5801,1.1928,49.25850858,-122.7467197,1.21000004
10.55,-0.536,-0.2038,-0.0971,-0.7124,-2.3123,-3.6576,-0.9027,-0.5801,1.1928,49.25850858,-122.7467197,1.21000004
10.551,-0.536,-0.2038,-0.0971,-0.7124,-2.3123,-3.6576,-1.7725,-0.3436,1.2913,49.25850858,-122.7467197,1.21000004
10.57,-0.536,-0.2038,-0.0971,3.3468,-4.2033,-3.1031,-1.7725,-0.3436,1.2913,49.25850858,-122.7467197,1.21000004
10.627,-0.5974,-0.053,0.1006,3.3468,-4.2033,-3.1031,-1.7725,-0.3436,1.2913,49.25850858,-122.7467197,1.21000004
10.628,-0.5974,-0.053,0.1006,3.3468,-4.2033,-3.1031,-1.372,0.2772,0.8865,49.25850858,-122.7467197,1.21000004
10.646,-0.5974,-0.053,0.1006,4.3069,-3.6136,0.1786,-1.372,0.2772,0.8865,49.25850858,-122.7467197,1.21000004
10.684,-0.9235,0.0674,0.1641,4.3069,-3.6136,0.1786,-1.372,0.2772,0.8865,49.25850858,-122.7467197,1.21000004
10.685,-0.9235,0.0674,0.1641,4.3069,-3.6136,0.1786,-0.0764,1.1551,-0.3094,49.25850858,-122.7467197,1.21000004
10.704,-0.9235,0.0674,0.1641,2.6695,-1.5539,2.2004,-0.0764,1.1551,-0.3094,49.25850858,-122.7467197,1.21000004
10.761,-0.9235,0.0674,0.1641,2.6695,-1.5539,2.2004,0.9296,0.6513,-1.0019,49.25850858,-122.7467197,1.21000004
10.764,-0.9823,-0.1097,0.1129,2.6695,-1.5539,2.2004,0.9296,0.6513,-1.0019,49.25850858,-122.7467197,1.21000004
10.78,-0.9823,-0.1097,0.1129,0.1508,-0.6656,2.6399,0.9296,0.6513,-1.0019,49.25850858,-122.7467197,1.21000004
10.819,-1.3557,-0.11,0.3583,0.1508,-0.6656,2.6399,0.9296,0.6513,-1.0019,49.25850858,-122.7467197,1.21000004
10.819,-1.3557,-0.11,0.3583,0.1508,-0.6656,2.6399,0.6014,-1.0951,-0.6096,49.25850858,-122.7467197,1.21000004
10.838,-1.3557,-0.11,0.3583,-1.2973,-1.5047,1.6344,0.6014,-1.0951,-0.6096,49.25850858,-122.7467197,1.21000004
10.896,-1.3557,-0.11,0.3583,-1.2973,-1.5047,1.6344,1.8206,-1.8131,-1.3276,49.25850858,-122.7467197,1.21000004
10.896,-1.2257,-0.2836,0.5304,-1.2973,-1.5047,1.6344,1.8206,-1.8131,-1.3276,49.25851982,-122.7467101,1.26999998
10.915,-1.2257,-0.2836,0.5304,-3.7617,-0.9043,3.0424,1.8206,-1.8131,-1.3276,49.25851982,-122.7467101,1.26999998
10.953,-1.2257,-0.2836,0.5304,-3.7617,-0.9043,3.0424,2.8103,-3.8672,-2.8389,49.25851982,-122.7467101,1.26999998
10.953,-1.0376,-0.2294,0.4771,-3.7617,-0.9043,3.0424,2.8103,-3.8672,-2.8389,49.25851982,-122.7467101,1.26999998
10.972,-1.0376,-0.2294,0.4771,-1.9907,-0.6586,2.2106,2.8103,-3.8672,-2.8389,49.25851982,-122.7467101,1.26999998
11.03,-1.0106,-0.1648,0.2374,-1.9907,-0.6586,2.2106,2.8103,-3.8672,-2.8389,49.25851982,-122.7467101,1.26999998
11.03,-1.0106,-0.1648,0.2374,-1.9907,-0.6586,2.2106,1.4608,-2.8738,-2.2727,49.25851982,-122.7467101,1.26999998
11.049,-1.0106,-0.1648,0.2374,-2.7458,0.6857,-1.9761,1.4608,-2.8738,-2.2727,49.25851982,-122.7467101,1.26999998
11.088,-0.9862,-0.198,0.2313,-2.7458,0.6857,-1.9761,1.4608,-2.8738,-2.2727,49.25851982,-122.7467101,1.26999998
11.088,-0.9862,-0.198,0.2313,-2.7458,0.6857,-1.9761,0.5658,-3.0729,-1.099,49.25851982,-122.7467101,1.26999998
11.107,-0.9862,-0.198,0.2313,-4.3176,1.1439,-5.5616,0.5658,-3.0729,-1.099,49.25851982,-122.7467101,1.26999998
11.164,-0.9862,-0.198,0.2313,-4.3176,1.1439,-5.5616,-0.3539,-6.7889,0.4748,49.25851982,-122.7467101,1.26999998
11.165,-0.6748,-0.2651,0.6474,-4.3176,1.1439,-5.5616,-0.3539,-6.7889,0.4748,49.25851982,-122.7467101,1.26999998
11.183,-0.6748,-0.2651,0.6474,-7.0991,1.0364,-6.1083,-0.3539,-6.7889,0.4748,49.25851982,-122.7467101,1.26999998
11.221,-0.6748,-0.2651,0.6474,-7.0991,1.0364,-6.1083,0.9802,-7.6612,0.9064,49.25851982,-122.7467101,1.26999998
11.222,-0.04,0.0709,0.9341,-7.0991,1.0364,-6.1083,0.9802,-7.6612,0.9064,49.25851982,-122.7467101,1.26999998
11.241,-0.04,0.0709,0.9341,-8.1157,-0.4568,-0.8841,0.9802,-7.6612,0.9064,49.25851982,-122.7467101,1.26999998
11.298,-0.04,0.0709,0.9341,-8.1157,-0.4568,-0.8841,1.7741,-1.3464,0.0177,49.25851982,-122.7467101,1.26999998
11.298,0.3982,-0.1578,1.0936,-8.1157,-0.4568,-0.8841,1.7741,-1.3464,0.0177,49.25851982,-122.7467101,1.26999998
11.317,0.3982,-0.1578,1.0936,1.0578,2.398,-0.3453,1.7741,-1.3464,0.0177,49.25851982,-122.7467101,1.26999998
11.356,0.3982,-0.1578,1.0936,1.0578,2.398,-0.3453,0.1316,-0.9609,-0.3144,49.25851982,-122.7467101,1.26999998
11.356,0.3792,-0.3721,1.3792,1.0578,2.398,-0.3453,0.1316,-0.9609,-0.3144,49.25851982,-122.7467101,1.26999998
11.375,0.3792,-0.3721,1.3792,-0.0668,-1.2443,1.4387,0.1316,-0.9609,-0.3144,49.25851982,-122.7467101,1.26999998
11.432,0.3792,-0.3721,1.3792,-0.0668,-1.2443,1.4387,1.4903,-1.0831,0.1589,49.25851982,-122.7467101,1.26999998
11.433,0.2267,-0.4561,1.3229,-0.0668,-1.2443,1.4387,1.4903,-1.0831,0.1589,49.25851982,-122.7467101,1.26999998
11.451,0.2267,-0.4561,1.3229,-0.0945,-4.5978,7.2446,1.4903,-1.0831,0.1589,49.25851982,-122.7467101,1.26999998
11.49,0.2267,-0.4561,1.3229,-0.0945,-4.5978,7.2446,0.4946,-1.396,0.8647,49.25851982,-122.7467101,1.26999998
11.49,0.2371,-0.1239,0.7969,-0.0945,-4.5978,7.2446,0.4946,-1.396,0.8647,49.25851982,-122.7467101,1.26999998
11.509,0.2371,-0.1239,0.7969,-2.1639,-3.2911,0.9048,0.4946,-1.396,0.8647,49.25851982,-122.7467101,1.26999998
11.567,0.2371,-0.1239,0.7969,-2.1639,-3.2911,0.9048,-0.1986,0.0135,1.9861,49.25851982,-122.7467101,1.26999998
11.568,0.5585,-0.0496,0.2584,-2.1639,-3.2911,0.9048,-0.1986,0.0135,1.9861,49.25851982,-122.7467101,1.26999998
11.586,0.5585,-0.0496,0.2584,0.2001,0.2252,-1.9845,-0.1986,0.0135,1.9861,49.25851982,-122.7467101,1.26999998
11.624,0.5585,-0.0496,0.2584,0.2001,0.2252,-1.9845,1.0842,5.4275,1.6274,49.25851982,-122.7467101,1.26999998
11.625,0.1781,0.1108,0.9619,0.2001,0.2252,-1.9845,1.0842,5.4275,1.6274,49.25851982,-122.7467101,1.26999998
11.643,0.1781,0.1108,0.9619,5.5686,0.1553,-6.0009,1.0842,5.4275,1.6274,49.25851982,-122.7467101,1.26999998
11.701,0.1781,0.1108,0.9619,5.5686,0.1553,-6.0009,1.168,3.5522,1.2557,49.25851982,-122.7467101,1.26999998
11.701,-0.0936,0.0544,0.8641,5.5686,0.1553,-6.0009,1.168,3.5522,1.2557,49.25851982,-122.7467101,1.26999998
11.72,-0.0936,0.0544,0.8641,2.5459,0.5613,-0.0502,1.168,3.5522,1.2557,49.25851982,-122.7467101,1.26999998
11.758,-0.0936,0.0544,0.8641,2.5459,0.5613,-0.0502,1.524,1.0956,0.7342,49.25851982,-122.7467101,1.26999998
11.758,-0.0893,0.0658,0.8593,2.5459,0.5613,-0.0502,1.524,1.0956,0.7342,49.25851982,-122.7467101,1.26999998
11.777,-0.0893,0.0658,0.8593,1.0765,-1.2446,-0.4867,1.524,1.0956,0.7342,49.25851982,-122.7467101,1.26999998
11.836,0.0249,0.2063,1.135,1.0765,-1.2446,-0.4867,1.524,1.0956,0.7342,49.25851982,-122.7467101,1.26999998
11.836,0.0249,0.2063,1.135,1.0765,-1.2446,-0.4867,1.3666,0.9319,0.1922,49.25851982,-122.7467101,1.26999998
11.854,0.0249,0.2063,1.135,2.0709,-0.9471,0.2709,1.3666,0.9319,0.1922,49.25851982,-122.7467101,1.26999998
11.892,-0.2701,0.2439,1.2578,2.0709,-0.9471,0.2709,1.3666,0.9319,0.1922,49.25853039,-122.7466971,1.36000001
11.893,-0.2701,0.2439,1.2578,2.0709,-0.9471,0.2709,-0.8039,-0.3232,-0.4525,49.25853039,-122.7466971,1.36000001
11.911,-0.2701,0.2439,1.2578,2.4494,0.8554,1.6619,-0.8039,-0.3232,-0.4525,49.25853039,-122.7466971,1.36000001
11.969,-0.2701,0.2439,1.2578,2.4494,0.8554,1.6619,-0.6824,-1.1051,-0.0418,49.25853039,-122.7466971,1.36000001
11.969,-0.1521,0.0165,1.3468,2.4494,0.8554,1.6619,-0.6824,-1.1051,-0.0418,49.25853039,-122.7466971,1.36000001
11.988,-0.1521,0.0165,1.3468,-0.9928,0.74,3.9332,-0.6824,-1.1051,-0.0418,49.25853039,-122.7466971,1.36000001
12.026,-0.1521,0.0165,1.3468,-0.9928,0.74,3.9332,-0.3246,-0.9523,-0.1389,49.25853039,-122.7466971,1.36000001
12.027,0.0306,-0.0997,0.7347,-0.9928,0.74,3.9332,-0.3246,-0.9523,-0.1389,49.25853039,-122.7466971,1.36000001
12.045,0.0306,-0.0997,0.7347,0.3998,-1.276,2.2505,-0.3246,-0.9523,-0.1389,49.25853039,-122.7466971,1.36000001
12.103,0.0306,-0.0997,0.7347,0.3998,-1.276,2.2505,-0.2897,-0.0786,-0.5535,49.25853039,-122.7466971,1.36000001
12.103,-0.0465,0.0499,0.8402,0.3998,-1.276,2.2505,-0.2897,-0.0786,-0.5535,49.25853039,-122.7466971,1.36000001
12.122,-0.0465,0.0499,0.8402,1.8226,-1.7943,-2.5667,-0.2897,-0.0786,-0.5535,49.25853039,-122.7466971,1.36000001
12.16,-0.0691,0.1616,0.7017,1.8226,-1.7943,-2.5667,-0.2897,-0.0786,-0.5535,49.25853039,-122.7466971,1.36000001
12.161,-0.0691,0.1616,0.7017,1.8226,-1.7943,-2.5667,0.943,-0.2884,-0.6165,49.25853039,-122.7466971,1.36000001
12.179,-0.0691,0.1616,0.7017,0.1702,-0.3512,-1.6404,0.943,-0.2884,-0.6165,49.25853039,-122.7466971,1.36000001
12.237,-0.0691,0.1616,0.7017,0.1702,-0.3512,-1.6404,0.4089,-1.5344,-0.4795,49.25853039,-122.7466971,1.36000001
12.237,-0.027,0.2784,0.5538,0.1702,-0.3512,-1.6404,0.4089,-1.5344,-0.4795,49.25853039,-122.7466971,1.36000001
12.257,-0.027,0.2784,0.5538,-0.5251,0.3559,-3.1916,0.4089,-1.5344,-0.4795,49.25853039,-122.7466971,1.36000001
12.294,0.0094,0.2282,1.0925,-0.5251,0.3559,-3.1916,0.4089,-1.5344,-0.4795,49.25853039,-122.7466971,1.36000001
12.295,0.0094,0.2282,1.0925,-0.5251,0.3559,-3.1916,-0.1424,-1.2864,-0.3769,49.25853039,-122.7466971,1.36000001
12.314,0.0094,0.2282,1.0925,-1.0728,1.3276,-2.6647,-0.1424,-1.2864,-0.3769,49.25853039,-122.7466971,1.36000001
12.371,0.0603,0.1778,1.3635,-1.0728,1.3276,-2.6647,-0.1424,-1.2864,-0.3769,49.25853039,-122.7466971,1.36000001
12.372,0.0603,0.1778,1.3635,-1.0728,1.3276,-2.6647,0.2667,-1.2759,-0.2291,49.25853039,-122.7466971,1.36000001
12.391,0.0603,0.1778,1.3635,-1.3189,0.2678,2.8134,0.2667,-1.2759,-0.2291,49.25853039,-122.7466971,1.36000001
12.429,0.0603,0.1778,1.3635,-1.3189,0.2678,2.8134,-0.761,-0.0816,0.6434,49.25853039,-122.7466971,1.36000001
12.429,0.2521,0.1344,1.1136,-1.3189,0.2678,2.8134,-0.761,-0.0816,0.6434,49.25853039,-122.7466971,1.36000001
12.448,0.2521,0.1344,1.1136,-0.3345,1.5108,2.7997,-0.761,-0.0816,0.6434,49.25853039,-122.7466971,1.36000001
12.506,-0.0505,-0.1617,1.1294,-0.3345,1.5108,2.7997,-0.761,-0.0816,0.6434,49.25853039,-122.7466971,1.36000001
12.506,-0.0505,-0.1617,1.1294,-0.3345,1.5108,2.7997,-2.1347,1.9156,1.87,49.25853039,-122.7466971,1.36000001
12.525,-0.0505,-0.1617,1.1294,2.4444,0.9513,1.1969,-2.1347,1.9156,1.87,49.25853039,-122.7466971,1.36000001
12.563,0.3883,-0.2006,1.3732,2.4444,0.9513,1.1969,-2.1347,1.9156,1.87,49.25853039,-122.7466971,1.36000001
12.564,0.3883,-0.2006,1.3732,2.4444,0.9513,1.1969,-0.5246,-1.8255,0.4286,49.25853039,-122.7466971,1.36000001
12.582,0.3883,-0.2006,1.3732,-2.227,-1.2577,2.8712,-0.5246,-1.8255,0.4286,49.25853039,-122.7466971,1.36000001
12.64,0.1931,-0.0137,0.7373,-2.227,-1.2577,2.8712,-0.5246,-1.8255,0.4286,49.25853039,-122.7466971,1.36000001
12.641,0.1931,-0.0137,0.7373,-2.227,-1.2577,2.8712,0.4583,-3.3284,-1.1436,49.25853039,-122.7466971,1.36000001
12.659,0.1931,-0.0137,0.7373,0.4415,-1.6406,2.7336,0.4583,-3.3284,-1.1436,49.25853039,-122.7466971,1.36000001
12.697,0.0101,0.0339,0.8843,0.4415,-1.6406,2.7336,0.4583,-3.3284,-1.1436,49.25853039,-122.7466971,1.36000001
12.698,0.0101,0.0339,0.8843,0.4415,-1.6406,2.7336,1.8113,-1.8351,2.5905,49.25853039,-122.7466971,1.36000001
12.717,0.0101,0.0339,0.8843,-6.419,0.9127,-0.5608,1.8113,-1.8351,2.5905,49.25853039,-122.7466971,1.36000001
12.774,0.0101,0.0339,0.8843,-6.419,0.9127,-0.5608,2.9465,-1.8959,1.8191,49.25853039,-122.7466971,1.36000001
12.775,0.4251,-0.0049,0.5636,-6.419,0.9127,-0.5608,2.9465,-1.8959,1.8191,49.25853039,-122.7466971,1.36000001
12.794,0.4251,-0.0049,0.5636,-2.4013,-2.1286,0.1412,2.9465,-1.8959,1.8191,49.25853039,-122.7466971,1.36000001
12.832,0.8296,-0.0104,0.2783,-2.4013,-2.1286,0.1412,2.9465,-1.8959,1.8191,49.25853039,-122.7466971,1.36000001
12.833,0.8296,-0.0104,0.2783,-2.4013,-2.1286,0.1412,2.4194,-3.3766,0.5937,49.25853039,-122.7466971,1.36000001
12.851,0.8296,-0.0104,0.2783,-1.9256,-2.1371,-0.7127,2.4194,-3.3766,0.5937,49.25853039,-122.7466971,1.36000001
12.909,0.8369,-0.1499,0.2452,-1.9256,-2.1371,-0.7127,2.4194,-3.3766,0.5937,49.25854165,-122.7466862,1.33000004
12.909,0.8369,-0.1499,0.2452,-1.9256,-2.1371,-0.7127,0.6336,-2.3374,1.5569,49.25854165,-122.7466862,1.33000004
12.928,0.8369,-0.1499,0.2452,-0.8845,-1.007,-2.5031,0.6336,-2.3374,1.5569,49.25854165,-122.7466862,1.33000004
12.966,1.2775,-0.5837,0.3375,-0.8845,-1.007,-2.5031,0.6336,-2.3374,1.5569,49.25854165,-122.7466862,1.33000004
12.967,1.2775,-0.5837,0.3375,-0.8845,-1.007,-2.5031,-0.4243,-3.3893,2.0168,49.25854165,-122.7466862,1.33000004
12.985,1.2775,-0.5837,0.3375,-0.0667,-2.3702,0.4587,-0.4243,-3.3893,2.0168,49.25854165,-122.7466862,1.33000004
13.043,1.2775,-0.5837,0.3375,-0.0667,-2.3702,0.4587,-0.2655,-2.0367,2.3324,49.25854165,-122.7466862,1.33000004
13.043,0.9397,-0.7563,0.157,-0.0667,-2.3702,0.4587,-0.2655,-2.0367,2.3324,49.25854165,-122.7466862,1.33000004
13.061,0.9397,-0.7563,0.157,3.8939,-4.7652,2.5358,-0.2655,-2.0367,2.3324,49.25854165,-122.7466862,1.33000004
13.1,0.9397,-0.7563,0.157,3.8939,-4.7652,2.5358,-0.4576,-1.1159,3.1855,49.25854165,-122.7466862,1.33000004
13.1,0.7566,-0.6338,0.1873,3.8939,-4.7652,2.5358,-0.4576,-1.1159,3.1855,49.25854165,-122.7466862,1.33000004
13.119,0.7566,-0.6338,0.1873,-1.2046,-2.9914,-0.1659,-0.4576,-1.1159,3.1855,49.25854165,-122.7466862,1.33000004
13.177,0.7566,-0.6338,0.1873,-1.2046,-2.9914,-0.1659,0.3512,-0.0617,3.1951,49.25854165,-122.7466862,1.33000004
13.178,0.916,-0.4545,0.306,-1.2046,-2.9914,-0.1659,0.3512,-0.0617,3.1951,49.25854165,-122.7466862,1.33000004
13.196,0.916,-0.4545,0.306,0.2349,0.0835,1.3334,0.3512,-0.0617,3.1951,49.25854165,-122.7466862,1.33000004
13.234,1.1185,-0.4343,0.3962,0.2349,0.0835,1.3334,0.3512,-0.0617,3.1951,49.25854165,-122.7466862,1.33000004
13.235,1.1185,-0.4343,0.3962,0.2349,0.0835,1.3334,1.3607,0.8684,2.3556,49.25854165,-122.7466862,1.33000004
13.254,1.1185,-0.4343,0.3962,2.6205,2.3636,1.3846,1.3607,0.8684,2.3556,49.25854165,-122.7466862,1.33000004
13.311,1.6021,-0.3569,-0.0763,2.6205,2.3636,1.3846,1.3607,0.8684,2.3556,49.25854165,-122.7466862,1.33000004
13.311,1.6021,-0.3569,-0.0763,2.6205,2.3636,1.3846,1.9736,-0.7872,0.7038,49.25854165,-122.7466862,1.33000004
13.331,1.6021,-0.3569,-0.0763,5.4566,1.5578,1.0219,1.9736,-0.7872,0.7038,49.25854165,-122.7466862,1.33000004
13.378,1.6021,-0.3569,-0.0763,5.4566,1.5578,1.0219,-0.0904,-1.5054,-0.6914,49.25854165,-122.7466862,1.33000004
13.379,1.3104,-0.2137,-0.6523,5.4566,1.5578,1.0219,-0.0904,-1.5054,-0.6914,49.25854165,-122.7466862,1.33000004
13.397,1.3104,-0.2137,-0.6523,8.7355,3.7065,-5.1363,-0.0904,-1.5054,-0.6914,49.25854165,-122.7466862,1.33000004
13.435,1.3104,-0.2137,-0.6523,8.7355,3.7065,-5.1363,-1.1084,-2.4486,-0.1621,49.25854165,-122.7466862,1.33000004
13.436,0.9771,-0.4592,-0.2883,8.7355,3.7065,-5.1363,-1.1084,-2.4486,-0.1621,49.25854165,-122.7466862,1.33000004
13.455,0.9771,-0.4592,-0.2883,1.7538,3.4468,-5.1651,-1.1084,-2.4486,-0.1621,49.25854165,-122.7466862,1.33000004
13.512,0.9771,-0.4592,-0.2883,1.7538,3.4468,-5.1651,-0.053,-2.4559,-1.5709,49.25854165,-122.7466862,1.33000004
13.513,1.1411,-0.8943,0.5091,1.7538,3.4468,-5.1651,-0.053,-2.4559,-1.5709,49.25854165,-122.7466862,1.33000004
13.532,1.1411,-0.8943,0.5091,2.1775,-1.053,1.9121,-0.053,-2.4559,-1.5709,49.25854165,-122.7466862,1.33000004
13.57,1.1411,-0.8943,0.5091,2.1775,-1.053,1.9121,0.3009,1.1768,-0.153,49.25854165,-122.7466862,1.33000004
13.571,0.3023,-0.9885,0.0003,2.1775,-1.053,1.9121,0.3009,1.1768,-0.153,49.25854165,-122.7466862,1.33000004
13.589,0.3023,-0.9885,0.0003,1.5468,-4.9852,4.7853,0.3009,1.1768,-0.153,49.25854165,-122.7466862,1.33000004
13.647,0.3023,-0.9885,0.0003,1.5468,-4.9852,4.7853,-0.7145,1.2548,1.7185,49.25854165,-122.7466862,1.33000004
13.647,0.7072,-0.7598,-0.3802,1.5468,-4.9852,4.7853,-0.7145,1.2548,1.7185,49.25854165,-122.7466862,1.33000004
13.665,0.7072,-0.7598,-0.3802,-4.6924,-1.5265,-1.2335,-0.7145,1.2548,1.7185,49.25854165,-122.7466862,1.33000004
13.704,0.7072,-0.7598,-0.3802,-4.6924,-1.5265,-1.2335,-0.0284,3.3394,0.4472,49.25854165,-122.7466862,1.33000004
13.705,0.2855,-0.4984,-0.0184,-4.6924,-1.5265,-1.2335,-0.0284,3.3394,0.4472,49.25854165,-122.7466862,1.33000004
13.724,0.2855,-0.4984,-0.0184,-0.3165,-1.507,-5.6403,-0.0284,3.3394,0.4472,49.25854165,-122.7466862,1.33000004
13.781,0.2855,-0.4984,-0.0184,-0.3165,-1.507,-5.6403,2.9032,0.7712,0.0578,49.25854165,-122.7466862,1.33000004
13.782,0.4797,-0.3461,0.4928,-0.3165,-1.507,-5.6403,2.9032,0.7712,0.0578,49.25854165,-122.7466862,1.33000004
13.8,0.4797,-0.3461,0.4928,-5.1892,1.6274,-0.3475,2.9032,0.7712,0.0578,49.25854165,-122.7466862,1.33000004
13.838,0.7329,-0.3336,0.1614,-5.1892,1.6274,-0.3475,2.9032,0.7712,0.0578,49.25854165,-122.7466862,1.33000004
13.839,0.7329,-0.3336,0.1614,-5.1892,1.6274,-0.3475,0.6266,-0.8178,-0.2736,49.25854165,-122.7466862,1.33000004
13.858,0.7329,-0.3336,0.1614,-2.2911,2.6768,-0.8278,0.6266,-0.8178,-0.2736,49.25854165,-122.7466862,1.33000004
13.915,1.149,-0.6423,0.1301,-2.2911,2.6768,-0.8278,0.6266,-0.8178,-0.2736,49.25855377,-122.7466806,1.22000003
13.916,1.149,-0.6423,0.1301,-2.2911,2.6768,-0.8278,0.329,-0.9167,-0.5089,49.25855377,-122.7466806,1.22000003
13.934,1.149,-0.6423,0.1301,1.0038,0.5908,0.8271,0.329,-0.9167,-0.5089,49.25855377,-122.7466806,1.22000003
13.973,1.1539,-0.7521,-0.0177,1.0038,0.5908,0.8271,0.329,-0.9167,-0.5089,49.25855377,-122.7466806,1.22000003
13.974,1.1539,-0.7521,-0.0177,1.0038,0.5908,0.8271,-1.676,-1.6608,-1.5391,49.25855377,-122.7466806,1.22000003
13.991,1.1539,-0.7521,-0.0177,3.0541,-2.3088,0.6827,-1.676,-1.6608,-1.5391,49.25855377,-122.7466806,1.22000003
14.049,0.8557,-1.0722,0.2685,3.0541,-2.3088,0.6827,-1.676,-1.6608,-1.5391,49.25855377,-122.7466806,1.22000003
14.05,0.8557,-1.0722,0.2685,3.0541,-2.3088,0.6827,-1.3498,-0.3256,-1.7664,49.25855377,-122.7466806,1.22000003
14.069,0.8557,-1.0722,0.2685,1.9781,-4.5235,-0.9557,-1.3498,-0.3256,-1.7664,49.25855377,-122.7466806,1.22000003
14.107,0.472,-1.0768,-0.0334,1.9781,-4.5235,-0.9557,-1.3498,-0.3256,-1.7664,49.25855377,-122.7466806,1.22000003
14.108,0.472,-1.0768,-0.0334,1.9781,-4.5235,-0.9557,-0.0096,0.5446,1.148,49.25855377,-122.7466806,1.22000003
14.126,0.472,-1.0768,-0.0334,-3.0642,-6.3061,2.2181,-0.0096,0.5446,1.148,49.25855377,-122.7466806,1.22000003
14.184,0.472,-1.0768,-0.0334,-3.0642,-6.3061,2.2181,-0.2847,1.1033,0.8251,49.25855377,-122.7466806,1.22000003
14.184,0.5914,-0.4631,0.1365,-3.0642,-6.3061,2.2181,-0.2847,1.1033,0.8251,49.25855377,-122.7466806,1.22000003
14.203,0.5914,-0.4631,0.1365,-1.6854,-4.6451,-1.5525,-0.2847,1.1033,0.8251,49.25855377,-122.7466806,1.22000003
14.241,0.6778,-0.1432,0.0299,-1.6854,-4.6451,-1.5525,-0.2847,1.1033,0.8251,49.25855377,-122.7466806,1.22000003
14.242,0.6778,-0.1432,0.0299,-1.6854,-4.6451,-1.5525,-0.3873,-0.7117,0.4671,49.25855377,-122.7466806,1.22000003
14.26,0.6778,-0.1432,0.0299,-3.8471,2.8937,0.5357,-0.3873,-0.7117,0.4671,49.25855377,-122.7466806,1.22000003
14.318,0.6369,-0.1491,-0.073,-3.8471,2.8937,0.5357,-0.3873,-0.7117,0.4671,49.25855377,-122.7466806,1.22000003
14.319,0.6369,-0.1491,-0.073,-3.8471,2.8937,0.5357,0.1438,1.0893,-0.4111,49.25855377,-122.7466806,1.22000003
14.337,0.6369,-0.1491,-0.073,-0.5447,3.0462,-1.4745,0.1438,1.0893,-0.4111,49.25855377,-122.7466806,1.22000003
14.375,1.0337,-0.28,-0.013,-0.5447,3.0462,-1.4745,0.1438,1.0893,-0.4111,49.25855377,-122.7466806,1.22000003
14.376,1.0337,-0.28,-0.013,-0.5447,3.0462,-1.4745,0.1677,1.5224,-1.1826,49.25855377,-122.7466806,1.22000003
14.395,1.0337,-0.28,-0.013,-1.7505,2.5769,-3.495,0.1677,1.5224,-1.1826,49.25855377,-122.7466806,1.22000003
14.455,1.0337,-0.28,-0.013,-1.7505,2.5769,-3.495,0.0602,1.063,-0.8293,49.25855377,-122.7466806,1.22000003
14.456,1.1351,-0.6174,-0.1931,-1.7505,2.5769,-3.495,0.0602,1.063,-0.8293,49.25855377,-122.7466806,1.22000003
14.471,1.1351,-0.6174,-0.1931,1.973,0.1897,-3.3277,0.0602,1.063,-0.8293,49.25855377,-122.7466806,1.22000003
14.509,1.1351,-0.6174,-0.1931,1.973,0.1897,-3.3277,-1.2193,1.9229,-0.2724,49.25855377,-122.7466806,1.22000003
14.51,1.0676,-0.5834,0.3769,1.973,0.1897,-3.3277,-1.2193,1.9229,-0.2724,49.25855377,-122.7466806,1.22000003
14.529,1.0676,-0.5834,0.3769,4.1656,-2.2534,-4.2081,-1.2193,1.9229,-0.2724,49.25855377,-122.7466806,1.22000003
14.587,0.4918,-0.9278,1.0455,4.1656,-2.2534,-4.2081,-1.2193,1.9229,-0.2724,49.25855377,-122.7466806,1.22000003
14.588,0.4918,-0.9278,1.0455,4.1656,-2.2534,-4.2081,-0.5288,0.0907,0.5909,49.25855377,-122.7466806,1.22000003
14.605,0.4918,-0.9278,1.0455,0.5134,-1.7832,3.247,-0.5288,0.0907,0.5909,49.25855377,-122.7466806,1.22000003
14.644,0.4918,-0.9278,1.0455,0.5134,-1.7832,3.247,0.842,-1.8903,3.3401,49.25855377,-122.7466806,1.22000003
14.645,0.2661,-0.4628,0.4632,0.5134,-1.7832,3.247,0.842,-1.8903,3.3401,49.25855377,-122.7466806,1.22000003
14.662,0.2661,-0.4628,0.4632,-3.4384,-1.5799,6.0135,0.842,-1.8903,3.3401,49.25855377,-122.7466806,1.22000003
14.72,0.2661,-0.4628,0.4632,-3.4384,-1.5799,6.0135,0.5885,-4.1426,4.0248,49.25855377,-122.7466806,1.22000003
14.72,0.2907,-0.7174,-0.147,-3.4384,-1.5799,6.0135,0.5885,-4.1426,4.0248,49.25855377,-122.7466806,1.22000003
14.739,0.2907,-0.7174,-0.147,-2.6257,2.9017,2.1708,0.5885,-4.1426,4.0248,49.25855377,-122.7466806,1.22000003
14.778,0.2907,-0.7174,-0.147,-2.6257,2.9017,2.1708,1.1285,-2.4825,2.3196,49.25855377,-122.7466806,1.22000003
14.778,0.2031,-0.4936,-0.0805,-2.6257,2.9017,2.1708,1.1285,-2.4825,2.3196,49.25855377,-122.7466806,1.22000003
14.797,0.2031,-0.4936,-0.0805,-1.6425,1.7517,-2.5452,1.1285,-2.4825,2.3196,49.25855377,-122.7466806,1.22000003
14.854,0.2031,-0.4936,-0.0805,-1.6425,1.7517,-2.5452,0.4093,-0.8368,1.6201,49.25855377,-122.7466806,1.22000003
14.855,0.335,-0.3846,-0.5938,-1.6425,1.7517,-2.5452,0.4093,-0.8368,1.6201,49.25856792,-122.74668,1.5
14.874,0.335,-0.3846,-0.5938,-1.1547,4.9104,-2.9139,0.4093,-0.8368,1.6201,49.25856792,-122.74668,1.5
14.912,0.603,-1.386,-0.3409,-1.1547,4.9104,-2.9139,0.4093,-0.8368,1.6201,49.25856792,-122.74668,1.5
14.912,0.603,-1.386,-0.3409,-1.1547,4.9104,-2.9139,-1.1263,0.7698,2.7142,49.25856792,-122.74668,1.5
14.931,0.603,-1.386,-0.3409,1.4017,4.3822,-6.3219,-1.1263,0.7698,2.7142,49.25856792,-122.74668,1.5
14.989,0.8446,-2.0724,-0.2421,1.4017,4.3822,-6.3219,-1.1263,0.7698,2.7142,49.25856792,-122.74668,1.5
14.989,0.8446,-2.0724,-0.2421,1.4017,4.3822,-6.3219,-0.4323,1.3019,-0.7488,49.25856792,-122.74668,1.5
15.008,0.8446,-2.0724,-0.2421,5.9931,-10.9219,-2.5929,-0.4323,1.3019,-0.7488,49.25856792,-122.74668,1.5
15.046,0.8446,-2.0724,-0.2421,5.9931,-10.9219,-2.5929,-0.9023,1.3731,-0.8242,49.25856792,-122.74668,1.5
15.046,0.2089,-1.3144,0.0045,5.9931,-10.9219,-2.5929,-0.9023,1.3731,-0.8242,49.25856792,-122.74668,1.5
15.065,0.2089,-1.3144,0.0045,1.4748,-6.9197,-2.1261,-0.9023,1.3731,-0.8242,49.25856792,-122.74668,1.5
15.122,0.2089,-1.3144,0.0045,1.4748,-6.9197,-2.1261,-0.8557,0.8733,0.4291,49.25856792,-122.74668,1.5
15.123,-0.4851,-1.7358,-0.003,1.4748,-6.9197,-2.1261,-0.8557,0.8733,0.4291,49.25856792,-122.74668,1.5
15.142,-0.4851,-1.7358,-0.003,-2.8463,-4.5947,1.7696,-0.8557,0.8733,0.4291,49.25856792,-122.74668,1.5
15.18,-0.3904,-0.8057,-0.0323,-2.8463,-4.5947,1.7696,-0.8557,0.8733,0.4291,49.25856792,-122.74668,1.5
15.181,-0.3904,-0.8057,-0.0323,-2.8463,-4.5947,1.7696,-0.7833,0.5764,-0.1188,49.25856792,-122.74668,1.5
15.199,-0.3904,-0.8057,-0.0323,-7.5814,-5.1911,0.8324,-0.7833,0.5764,-0.1188,49.25856792,-122.74668,1.5
15.257,-0.0476,-0.3212,0.1269,-7.5814,-5.1911,0.8324,-0.7833,0.5764,-0.1188,49.25856792,-122.74668,1.5
15.257,-0.0476,-0.3212,0.1269,-7.5814,-5.1911,0.8324,-0.1478,-0.4125,0.2231,49.25856792,-122.74668,1.5
15.276,-0.0476,-0.3212,0.1269,-5.7491,3.3169,1.0583,-0.1478,-0.4125,0.2231,49.25856792,-122.74668,1.5
15.315,-0.0476,-0.3212,0.1269,-5.7491,3.3169,1.0583,0.0332,-0.4472,0.0092,49.25856792,-122.74668,1.5
15.315,0.4407,-0.3052,0.1463,-5.7491,3.3169,1.0583,0.0332,-0.4472,0.0092,49.25856792,-122.74668,1.5
15.334,0.4407,-0.3052,0.1463,-1.9807,6.7656,2.965,0.0332,-0.4472,0.0092,49.25856792,-122.74668,1.5
15.391,0.4904,-0.768,-0.1033,-1.9807,6.7656,2.965,0.0332,-0.4472,0.0092,49.25856792,-122.74668,1.5
15.391,0.4904,-0.768,-0.1033,-1.9807,6.7656,2.965,-0.1155,-0.3334,-0.0675,49.25856792,-122.74668,1.5
15.41,0.4904,-0.768,-0.1033,2.2123,5.1835,2.0833,-0.1155,-0.3334,-0.0675,49.25856792,-122.74668,1.5
15.448,0.4904,-0.768,-0.1033,2.2123,5.1835,2.0833,-0.8348,-1.9449,-0.4026,49.25856792,-122.74668,1.5
15.449,0.8917,-1.3083,-0.9501,2.2123,5.1835,2.0833,-0.8348,-1.9449,-0.4026,49.25856792,-122.74668,1.5
15.468,0.8917,-1.3083,-0.9501,3.6704,-0.2811,-0.9052,-0.8348,-1.9449,-0.4026,49.25856792,-122.74668,1.5
15.525,0.8917,-1.3083,-0.9501,3.6704,-0.2811,-0.9052,-1.2483,-1.3093,-0.4291,49.25856792,-122.74668,1.5
15.526,0.1814,-1.0321,-0.6258,3.6704,-0.2811,-0.9052,-1.2483,-1.3093,-0.4291,49.25856792,-122.74668,1.5
15.545,0.1814,-1.0321,-0.6258,4.8343,-3.4068,-7.9312,-1.2483,-1.3093,-0.4291,49.25856792,-122.74668,1.5
15.583,0.1814,-1.0321,-0.6258,4.8343,-3.4068,-7.9312,1.0198,2.0313,0.8872,49.25856792,-122.74668,1.5
15.584,0.126,-1.5093,0.1176,4.8343,-3.4068,-7.9312,1.0198,2.0313,0.8872,49.25856792,-122.74668,1.5
15.603,0.126,-1.5093,0.1176,-3.8965,-1.5669,0.1837,1.0198,2.0313,0.8872,49.25856792,-122.74668,1.5
15.66,0.1289,-1.5894,0.5178,-3.8965,-1.5669,0.1837,1.0198,2.0313,0.8872,49.25856792,-122.74668,1.5
15.661,0.1289,-1.5894,0.5178,-3.8965,-1.5669,0.1837,1.5301,1.2935,-0.423,49.25856792,-122.74668,1.5
15.68,0.1289,-1.5894,0.5178,0.2585,-7.0897,2.9646,1.5301,1.2935,-0.423,49.25856792,-122.74668,1.5
15.717,0.0967,-0.8735,-0.2445,0.2585,-7.0897,2.9646,1.5301,1.2935,-0.423,49.25856792,-122.74668,1.5
15.718,0.0967,-0.8735,-0.2445,0.2585,-7.0897,2.9646,0.9027,-0.6846,-0.1378,49.25856792,-122.74668,1.5
15.736,0.0967,-0.8735,-0.2445,-2.4969,-3.9941,2.8618,0.9027,-0.6846,-0.1378,49.25856792,-122.74668,1.5
15.794,0.0967,-0.8735,-0.2445,-2.4969,-3.9941,2.8618,0.9146,0.576,0.2212,49.25856792,-122.74668,1.5
15.795,0.0741,-0.326,-0.2345,-2.4969,-3.9941,2.8618,0.9146,0.576,0.2212,49.25856792,-122.74668,1.5
15.813,0.0741,-0.326,-0.2345,-1.9398,2.6319,-3.341,0.9146,0.576,0.2212,49.25856792,-122.74668,1.5
15.851,0.0741,-0.326,-0.2345,-1.9398,2.6319,-3.341,0.74,-0.0879,0.2181,49.25856792,-122.74668,1.5
15.852,0.0571,-0.2155,0.0718,-1.9398,2.6319,-3.341,0.74,-0.0879,0.2181,49.25858506,-122.7466799,1.74000001
15.87,0.0571,-0.2155,0.0718,-1.8368,6.6985,-1.8178,0.74,-0.0879,0.2181,49.25858506,-122.7466799,1.74000001
15.928,0.0571,-0.2155,0.0718,-1.8368,6.6985,-1.8178,0.2341,-2.2301,0.8857,49.25858506,-122.7466799,1.74000001
15.929,0.5211,-0.6518,-0.3763,-1.8368,6.6985,-1.8178,0.2341,-2.2301,0.8857,49.25858506,-122.7466799,1.74000001
15.948,0.5211,-0.6518,-0.3763,-1.4575,7.293,-0.1272,0.2341,-2.2301,0.8857,49.25858506,-122.7466799,1.74000001
15.986,0.7891,-1.6803,-0.0754,-1.4575,7.293,-0.1272,0.2341,-2.2301,0.8857,49.25858506,-122.7466799,1.74000001
15.986,0.7891,-1.6803,-0.0754,-1.4575,7.293,-0.1272,-0.2771,0.6041,-0.1071,49.25858506,-122.7466799,1.74000001
16.005,0.7891,-1.6803,-0.0754,5.5331,-0.9265,-4.402,-0.2771,0.6041,-0.1071,49.25858506,-122.7466799,1.74000001
16.062,0.7891,-1.6803,-0.0754,5.5331,-0.9265,-4.402,0.1417,0.1172,-0.5759,49.25858506,-122.7466799,1.74000001
16.063,0.3308,-1.4844,-0.2712,5.5331,-0.9265,-4.402,0.1417,0.1172,-0.5759,49.25858506,-122.7466799,1.74000001
16.082,0.3308,-1.4844,-0.2712,2.6099,-6.9647,0.5214,0.1417,0.1172,-0.5759,49.25858506,-122.7466799,1.74000001
16.12,0.3308,-1.4844,-0.2712,2.6099,-6.9647,0.5214,-1.5409,0.6612,-0.5633,49.25858506,-122.7466799,1.74000001
16.12,-0.0422,-1.4732,-0.1364,2.6099,-6.9647,0.5214,-1.5409,0.6612,-0.5633,49.25858506,-122.7466799,1.74000001
16.139,-0.0422,-1.4732,-0.1364,-0.0459,-4.843,-3.9155,-1.5409,0.6612,-0.5633,49.25858506,-122.7466799,1.74000001
16.197,-0.3966,-1.2225,0.03,-0.0459,-4.843,-3.9155,-1.5409,0.6612,-0.5633,49.25858506,-122.7466799,1.74000001
16.198,-0.3966,-1.2225,0.03,-0.0459,-4.843,-3.9155,-0.6768,0.6417,-0.1923,49.25858506,-122.7466799,1.74000001
16.216,-0.3966,-1.2225,0.03,-5.9508,-5.1892,1.6027,-0.6768,0.6417,-0.1923,49.25858506,-122.7466799,1.74000001
16.255,-0.3966,-1.2225,0.03,-5.9508,-5.1892,1.6027,-0.7674,0.1346,0.1409,49.25858506,-122.7466799,1.74000001
16.256,-0.0481,-0.6401,0.0909,-5.9508,-5.1892,1.6027,-0.7674,0.1346,0.1409,49.25858506,-122.7466799,1.74000001
16.274,-0.0481,-0.6401,0.0909,-5.6985,-0.7767,0.7742,-0.7674,0.1346,0.1409,49.25858506,-122.7466799,1.74000001
16.331,0.1066,-0.3184,0.2304,-5.6985,-0.7767,0.7742,-0.7674,0.1346,0.1409,49.25858506,-122.7466799,1.74000001
16.332,0.1066,-0.3184,0.2304,-5.6985,-0.7767,0.7742,-0.0295,-0.4008,0.3643,49.25858506,-122.7466799,1.74000001
16.341,0.1066,-0.3184,0.2304,-2.4637,4.2579,3.0621,-0.0295,-0.4008,0.3643,49.25858506,-122.7466799,1.74000001
16.399,0.1066,-0.3184,0.2304,-2.4637,4.2579,3.0621,0.0145,-0.9293,0.3387,49.25858506,-122.7466799,1.74000001
16.399,0.2993,-0.3636,0.0533,-2.4637,4.2579,3.0621,0.0145,-0.9293,0.3387,49.25858506,-122.7466799,1.74000001
16.417,0.2993,-0.3636,0.0533,-0.7121,6.4146,3.18,0.0145,-0.9293,0.3387,49.25858506,-122.7466799,1.74000001
16.455,0.6712,-1.0425,-0.6551,-0.7121,6.4146,3.18,0.0145,-0.9293,0.3387,49.25858506,-122.7466799,1.74000001
16.456,0.6712,-1.0425,-0.6551,-0.7121,6.4146,3.18,-0.4217,-1.2339,0.2102,49.25858506,-122.7466799,1.74000001
16.475,0.6712,-1.0425,-0.6551,1.2328,4.5229,1.7271,-0.4217,-1.2339,0.2102,49.25858506,-122.7466799,1.74000001
16.532,0.6712,-1.0425,-0.6551,1.2328,4.5229,1.7271,-1.5802,-1.4213,-0.3924,49.25858506,-122.7466799,1.74000001
16.533,0.6934,-1.3859,-1.3368,1.2328,4.5229,1.7271,-1.5802,-1.4213,-0.3924,49.25858506,-122.7466799,1.74000001
16.551,0.6934,-1.3859,-1.3368,5.051,-4.0692,-5.3829,-1.5802,-1.4213,-0.3924,49.25858506,-122.7466799,1.74000001
16.589,-0.1833,-1.0501,0.1808,5.051,-4.0692,-5.3829,-1.5802,-1.4213,-0.3924,49.25858506,-122.7466799,1.74000001
16.59,-0.1833,-1.0501,0.1808,5.051,-4.0692,-5.3829,0.3828,2.4219,0.1509,49.25858506,-122.7466799,1.74000001
16.609,-0.1833,-1.0501,0.1808,2.3446,-3.0058,-10.4131,0.3828,2.4219,0.1509,49.25858506,-122.7466799,1.74000001
16.667,-0.1833,-1.0501,0.1808,2.3446,-3.0058,-10.4131,0.4192,0.4553,0.2032,49.25858506,-122.7466799,1.74000001
16.668,0.3584,-1.7009,0.4672,2.3446,-3.0058,-10.4131,0.4192,0.4553,0.2032,49.25858506,-122.7466799,1.74000001
16.686,0.3584,-1.7009,0.4672,-3.6418,-1.2739,6.2644,0.4192,0.4553,0.2032,49.25858506,-122.7466799,1.74000001
16.724,0.3584,-1.7009,0.4672,-3.6418,-1.2739,6.2644,1.831,-1.3916,-0.6424,49.25858506,-122.7466799,1.74000001
16.724,0.0703,-1.2301,0.2521,-3.6418,-1.2739,6.2644,1.831,-1.3916,-0.6424,49.25858506,-122.7466799,1.74000001
16.743,0.0703,-1.2301,0.2521,0.5997,-7.8823,6.6842,1.831,-1.3916,-0.6424,49.25858506,-122.7466799,1.74000001
16.801,0.0703,-1.2301,0.2521,0.5997,-7.8823,6.6842,1.6753,-2.4245,-0.2298,49.25858506,-122.7466799,1.74000001
16.802,-0.0103,-0.5939,-0.3999,0.5997,-7.8823,6.6842,1.6753,-2.4245,-0.2298,49.25858506,-122.7466799,1.74000001
16.819,-0.0103,-0.5939,-0.3999,-2.8721,-0.2522,0.341,1.6753,-2.4245,-0.2298,49.25858506,-122.7466799,1.74000001
16.858,0.1235,-0.3169,-0.239,-2.8721,-0.2522,0.341,1.6753,-2.4245,-0.2298,49.25858506,-122.7466799,1.74000001
16.866,0.1235,-0.3169,-0.239,-2.8721,-0.2522,0.341,1.3451,-1.1567,-0.0926,49.25860291,-122.7466787,1.71000004
16.877,0.1235,-0.3169,-0.239,-2.5564,4.716,-4.2469,1.3451,-1.1567,-0.0926,49.25860291,-122.7466787,1.71000004
16.935,0.1235,-0.3169,-0.239,-2.5564,4.716,-4.2469,0.927,-0.7813,0.2615,49.25860291,-122.7466787,1.71000004
16.937,0.1408,-0.464,-0.2325,-2.5564,4.716,-4.2469,0.927,-0.7813,0.2615,49.25860291,-122.7466787,1.71000004
16.953,0.1408,-0.464,-0.2325,-1.1473,6.3252,-2.3317,0.927,-0.7813,0.2615,49.25860291,-122.7466787,1.71000004
16.992,0.1408,-0.464,-0.2325,-1.1473,6.3252,-2.3317,0.0049,-0.6666,0.4753,49.25860291,-122.7466787,1.71000004
16.993,0.5222,-1.3623,-0.3407,-1.1473,6.3252,-2.3317,0.0049,-0.6666,0.4753,49.25860291,-122.7466787,1.71000004
17.011,0.5222,-1.3623,-0.3407,-0.1946,3.1407,-3.117,0.0049,-0.6666,0.4753,49.25860291,-122.7466787,1.71000004
17.069,0.4755,-1.5296,-0.4778,-0.1946,3.1407,-3.117,0.0049,-0.6666,0.4753,49.25860291,-122.7466787,1.71000004
17.069,0.4755,-1.5296,-0.4778,-0.1946,3.1407,-3.117,-0.5135,1.13,-0.0158,49.25860291,-122.7466787,1.71000004
17.089,0.4755,-1.5296,-0.4778,2.5607,-5.7856,-3.6614,-0.5135,1.13,-0.0158,49.25860291,-122.7466787,1.71000004
17.126,0.4755,-1.5296,-0.4778,2.5607,-5.7856,-3.6614,-1.3439,1.1721,-0.5818,49.25860291,-122.7466787,1.71000004
17.127,0.028,-1.3283,0.0124,2.5607,-5.7856,-3.6614,-1.3439,1.1721,-0.5818,49.25860291,-122.7466787,1.71000004
17.145,0.028,-1.3283,0.0124,1.8298,-5.1647,-2.5758,-1.3439,1.1721,-0.5818,49.25860291,-122.7466787,1.71000004
17.203,-0.4482,-1.5834,0.382,1.8298,-5.1647,-2.5758,-1.3439,1.1721,-0.5818,49.25860291,-122.7466787,1.71000004
17.204,-0.4482,-1.5834,0.382,1.8298,-5.1647,-2.5758,-1.0327,2.243,-0.0135,49.25860291,-122.7466787,1.71000004
17.222,-0.4482,-1.5834,0.382,-4.0261,-3.8973,1.614,-1.0327,2.243,-0.0135,49.25860291,-122.7466787,1.71000004
17.26,-0.3016,-0.8103,0.0102,-4.0261,-3.8973,1.614,-1.0327,2.243,-0.0135,49.25860291,-122.7466787,1.71000004
17.261,-0.3016,-0.8103,0.0102,-4.0261,-3.8973,1.614,-0.2988,0.5771,0.127,49.25860291,-122.7466787,1.71000004
17.28,-0.3016,-0.8103,0.0102,-7.512,-4.55,4.6011,-0.2988,0.5771,0.127,49.25860291,-122.7466787,1.71000004
17.337,-0.3016,-0.8103,0.0102,-7.512,-4.55,4.6011,-0.8973,0.5031,0.2863,49.25860291,-122.7466787,1.71000004
17.337,0.2196,-0.3768,-0.4157,-7.512,-4.55,4.6011,-0.8973,0.5031,0.2863,49.25860291,-122.7466787,1.71000004
17.356,0.2196,-0.3768,-0.4157,-4.2266,3.4486,0.3121,-0.8973,0.5031,0.2863,49.25860291,-122.7466787,1.71000004
17.395,-0.0042,-0.2628,0.2618,-4.2266,3.4486,0.3121,-0.8973,0.5031,0.2863,49.25860291,-122.7466787,1.71000004
17.395,-0.0042,-0.2628,0.2618,-4.2266,3.4486,0.3121,-1.7553,0.938,0.1905,49.25860291,-122.7466787,1.71000004
17.414,-0.0042,-0.2628,0.2618,0.1862,6.0397,-1.388,-1.7553,0.938,0.1905,49.25860291,-122.7466787,1.71000004
17.471,-0.0042,-0.2628,0.2618,0.1862,6.0397,-1.388,-0.3101,0.0483,0.7497,49.25860291,-122.7466787,1.71000004
17.472,0.5633,-0.8381,-0.0211,0.1862,6.0397,-1.388,-0.3101,0.0483,0.7497,49.25860291,-122.7466787,1.71000004
17.49,0.5633,-0.8381,-0.0211,-1.4378,5.8366,6.0386,-0.3101,0.0483,0.7497,49.25860291,-122.7466787,1.71000004
17.529,1.0853,-1.3722,-1.5215,-1.4378,5.8366,6.0386,-0.3101,0.0483,0.7497,49.25860291,-122.7466787,1.71000004
17.529,1.0853,-1.3722,-1.5215,-1.4378,5.8366,6.0386,-0.4375,-0.4996,-0.4514,49.25860291,-122.7466787,1.71000004
17.548,1.0853,-1.3722,-1.5215,5.8704,-1.634,-0.4787,-0.4375,-0.4996,-0.4514,49.25860291,-122.7466787,1.71000004
17.606,0.0564,-0.8737,-0.2391,5.8704,-1.634,-0.4787,-0.4375,-0.4996,-0.4514,49.25860291,-122.7466787,1.71000004
17.606,0.0564,-0.8737,-0.2391,5.8704,-1.634,-0.4787,-0.5388,0.508,-0.3385,49.25860291,-122.7466787,1.71000004
17.627,0.0564,-0.8737,-0.2391,5.0055,-3.2302,-12.3476,-0.5388,0.508,-0.3385,49.25860291,-122.7466787,1.71000004
17.663,0.2072,-1.6678,0.3153,5.0055,-3.2302,-12.3476,-0.5388,0.508,-0.3385,49.25860291,-122.7466787,1.71000004
17.664,0.2072,-1.6678,0.3153,5.0055,-3.2302,-12.3476,1.077,1.2449,0.6177,49.25860291,-122.7466787,1.71000004
17.682,0.2072,-1.6678,0.3153,-1.9485,-0.2936,3.3631,1.077,1.2449,0.6177,49.25860291,-122.7466787,1.71000004
17.74,0.2072,-1.6678,0.3153,-1.9485,-0.2936,3.3631,1.3059,-0.3268,-0.4089,49.25860291,-122.7466787,1.71000004
17.741,0.0133,-1.5397,0.3855,-1.9485,-0.2936,3.3631,1.3059,-0.3268,-0.4089,49.25860291,-122.7466787,1.71000004
17.759,0.0133,-1.5397,0.3855,-0.316,-9.0397,5.3372,1.3059,-0.3268,-0.4089,49.25860291,-122.7466787,1.71000004
17.797,0.0133,-1.5397,0.3855,-0.316,-9.0397,5.3372,0.9086,-1.8475,-0.0916,49.25860291,-122.7466787,1.71000004
17.798,-0.0104,-0.6208,-0.4611,-0.316,-9.0397,5.3372,0.9086,-1.8475,-0.0916,49.25860291,-122.7466787,1.71000004
17.817,-0.0104,-0.6208,-0.4611,-3.0913,-1.9174,2.1732,0.9086,-1.8475,-0.0916,49.25860291,-122.7466787,1.71000004
17.874,-0.0104,-0.6208,-0.4611,-3.0913,-1.9174,2.1732,0.4163,-0.9516,0.1732,49.25860291,-122.7466787,1.71000004
17.874,0.0627,-0.2034,-0.2818,-3.0913,-1.9174,2.1732,0.4163,-0.9516,0.1732,49.25861965,-122.7466779,1.70000005
17.894,0.0627,-0.2034,-0.2818,-2.0977,4.9797,-4.113,0.4163,-0.9516,0.1732,49.25861965,-122.7466779,1.70000005
17.932,0.0627,-0.2034,-0.2818,-2.0977,4.9797,-4.113,0.7557,-0.4362,0.3533,49.25861965,-122.7466779,1.70000005
17.932,0.0915,-0.3746,-0.0403,-2.0977,4.9797,-4.113,0.7557,-0.4362,0.3533,49.25861965,-122.7466779,1.70000005
17.951,0.0915,-0.3746,-0.0403,-1.1318,7.7823,-0.9291,0.7557,-0.4362,0.3533,49.25861965,-122.7466779,1.70000005
18.009,0.5212,-1.2965,-0.2933,-1.1318,7.7823,-0.9291,0.7557,-0.4362,0.3533,49.25861965,-122.7466779,1.70000005
18.009,0.5212,-1.2965,-0.2933,-1.1318,7.7823,-0.9291,0.2869,-1.3539,0.4111,49.25861965,-122.7466779,1.70000005
18.027,0.5212,-1.2965,-0.2933,-0.0031,3.9735,-0.2024,0.2869,-1.3539,0.4111,49.25861965,-122.7466779,1.70000005
18.066,0.5212,-1.2965,-0.2933,-0.0031,3.9735,-0.2024,-0.0511,-0.0123,-0.0088,49.25861965,-122.7466779,1.70000005
18.066,0.3615,-1.4488,-0.5539,-0.0031,3.9735,-0.2024,-0.0511,-0.0123,-0.0088,49.25861965,-122.7466779,1.70000005
18.085,0.3615,-1.4488,-0.5539,3.8072,-5.0736,-3.2248,-0.0511,-0.0123,-0.0088,49.25861965,-122.7466779,1.70000005
18.143,0.288,-1.3571,-0.495,3.8072,-5.0736,-3.2248,-0.0511,-0.0123,-0.0088,49.25861965,-122.7466779,1.70000005
18.144,0.288,-1.3571,-0.495,3.8072,-5.0736,-3.2248,-1.0184,0.9089,0.0034,49.25861965,-122.7466779,1.70000005
18.162,0.288,-1.3571,-0.495,1.3602,-3.9835,-3.8517,-1.0184,0.9089,0.0034,49.25861965,-122.7466779,1.70000005
18.2,-0.0474,-1.4094,0.1181,1.3602,-3.9835,-3.8517,-1.0184,0.9089,0.0034,49.25861965,-122.7466779,1.70000005
18.201,-0.0474,-1.4094,0.1181,1.3602,-3.9835,-3.8517,-1.9656,0.2024,-0.105,49.25861965,-122.7466779,1.70000005
18.219,-0.0474,-1.4094,0.1181,-0.0734,-3.9002,-1.0399,-1.9656,0.2024,-0.105,49.25861965,-122.7466779,1.70000005
18.277,-0.0799,-1.0339,0.0557,-0.0734,-3.9002,-1.0399,-1.9656,0.2024,-0.105,49.25861965,-122.7466779,1.70000005
18.277,-0.0799,-1.0339,0.0557,-0.0734,-3.9002,-1.0399,0.0368,0.6167,-0.0868,49.25861965,-122.7466779,1.70000005
18.296,-0.0799,-1.0339,0.0557,-3.1657,-4.2503,5.1016,0.0368,0.6167,-0.0868,49.25861965,-122.7466779,1.70000005
18.334,-0.0799,-1.0339,0.0557,-3.1657,-4.2503,5.1016,-0.3238,0.648,-0.0486,49.25861965,-122.7466779,1.70000005
18.335,0.1015,-0.4895,0.0609,-3.1657,-4.2503,5.1016,-0.3238,0.648,-0.0486,49.25861965,-122.7466779,1.70000005
18.353,0.1015,-0.4895,0.0609,-2.2599,1.1486,1.9118,-0.3238,0.648,-0.0486,49.25861965,-122.7466779,1.70000005
18.411,0.1015,-0.4895,0.0609,-2.2599,1.1486,1.9118,-0.1133,0.4607,-0.2401,49.25861965,-122.7466779,1.70000005
18.412,0.2562,-0.2568,-0.0672,-2.2599,1.1486,1.9118,-0.1133,0.4607,-0.2401,49.25861965,-122.7466779,1.70000005
18.43,0.2562,-0.2568,-0.0672,-1.142,5.4512,3.2044,-0.1133,0.4607,-0.2401,49.25861965,-122.7466779,1.70000005
18.468,0.2562,-0.2568,-0.0672,-1.142,5.4512,3.2044,-0.0759,0.0816,0.0275,49.25861965,-122.7466779,1.70000005
18.469,0.2278,-0.4692,-0.2075,-1.142,5.4512,3.2044,-0.0759,0.0816,0.0275,49.25861965,-122.7466779,1.70000005
18.488,0.2278,-0.4692,-0.2075,0.112,6.4819,1.4334,-0.0759,0.0816,0.0275,49.25861965,-122.7466779,1.70000005
18.545,0.5816,-1.2061,-0.9354,0.112,6.4819,1.4334,-0.0759,0.0816,0.0275,49.25861965,-122.7466779,1.70000005
18.547,0.5816,-1.2061,-0.9354,0.112,6.4819,1.4334,-0.2808,-0.5249,-0.1127,49.25861965,-122.7466779,1.70000005
18.564,0.5816,-1.2061,-0.9354,1.2529,2.6055,-1.2621,-0.2808,-0.5249,-0.1127,49.25861965,-122.7466779,1.70000005
18.603,0.5816,-1.2061,-0.9354,1.2529,2.6055,-1.2621,-0.8959,-0.7174,-0.5253,49.25861965,-122.7466779,1.70000005
18.603,0.6034,-1.347,-0.9966,1.2529,2.6055,-1.2621,-0.8959,-0.7174,-0.5253,49.25861965,-122.7466779,1.70000005
18.622,0.6034,-1.347,-0.9966,3.2855,-4.1743,-6.8062,-0.8959,-0.7174,-0.5253,49.25861965,-122.7466779,1.70000005
18.679,0.6034,-1.347,-0.9966,3.2855,-4.1743,-6.8062,0.2279,1.6362,0.3027,49.25861965,-122.7466779,1.70000005
18.68,-0.0785,-1.144,0.1509,3.2855,-4.1743,-6.8062,0.2279,1.6362,0.3027,49.25861965,-122.7466779,1.70000005
18.699,-0.0785,-1.144,0.1509,0.8448,-3.1084,-2.9529,0.2279,1.6362,0.3027,49.25861965,-122.7466779,1.70000005
18.737,-0.0785,-1.144,0.1509,0.8448,-3.1084,-2.9529,0.6194,0.0526,0.1298,49.25861965,-122.7466779,1.70000005
18.738,0.2816,-1.5861,0.4583,0.8448,-3.1084,-2.9529,0.6194,0.0526,0.1298,49.25861965,-122.7466779,1.70000005
18.756,0.2816,-1.5861,0.4583,-2.4638,-3.7215,3.8872,0.6194,0.0526,0.1298,49.25861965,-122.7466779,1.70000005
18.814,0.2816,-1.5861,0.4583,-2.4638,-3.7215,3.8872,1.7192,-1.6868,-0.5542,49.25861965,-122.7466779,1.70000005
18.814,0.2167,-0.9994,-0.0181,-2.4638,-3.7215,3.8872,1.7192,-1.6868,-0.5542,49.25861965,-122.7466779,1.70000005
18.832,0.2167,-0.9994,-0.0181,0.1225,-5.186,6.1886,1.7192,-1.6868,-0.5542,49.25861965,-122.7466779,1.70000005
18.871,0.2167,-0.9994,-0.0181,0.1225,-5.186,6.1886,1.4966,-2.3842,-0.3701,49.25861965,-122.7466779,1.70000005
18.872,0.0209,-0.4524,-0.2985,0.1225,-5.186,6.1886,1.4966,-2.3842,-0.3701,49.258635,-122.7466757,1.66999996
18.89,0.0209,-0.4524,-0.2985,-1.1041,1.6914,-0.3483,1.4966,-2.3842,-0.3701,49.258635,-122.7466757,1.66999996
18.948,0.0287,-0.1852,-0.3062,-1.1041,1.6914,-0.3483,1.4966,-2.3842,-0.3701,49.258635,-122.7466757,1.66999996
18.949,0.0287,-0.1852,-0.3062,-1.1041,1.6914,-0.3483,1.416,-1.6573,-0.5656,49.258635,-122.7466757,1.66999996
18.967,0.0287,-0.1852,-0.3062,-2.9259,5.7432,-2.7799,1.416,-1.6573,-0.5656,49.258635,-122.7466757,1.66999996
19.005,0.0287,-0.1852,-0.3062,-2.9259,5.7432,-2.7799,0.7027,-0.4115,0.4341,49.258635,-122.7466757,1.66999996
19.006,0.3397,-0.7564,-0.1246,-2.9259,5.7432,-2.7799,0.7027,-0.4115,0.4341,49.258635,-122.7466757,1.66999996
19.024,0.3397,-0.7564,-0.1246,-2.143,7.4913,-2.0812,0.7027,-0.4115,0.4341,49.258635,-122.7466757,1.66999996
19.082,0.3397,-0.7564,-0.1246,-2.143,7.4913,-2.0812,1.1271,1.3408,0.1079,49.258635,-122.7466757,1.66999996
19.083,0.6979,-1.5223,-0.4204,-2.143,7.4913,-2.0812,1.1271,1.3408,0.1079,49.258635,-122.7466757,1.66999996
19.101,0.6979,-1.5223,-0.4204,3.0716,-1.5643,-1.9522,1.1271,1.3408,0.1079,49.258635,-122.7466757,1.66999996
19.14,0.6979,-1.5223,-0.4204,3.0716,-1.5643,-1.9522,-0.8554,1.0021,0.1226,49.258635,-122.7466757,1.66999996
19.14,0.5443,-1.5563,-0.6558,3.0716,-1.5643,-1.9522,-0.8554,1.0021,0.1226,49.258635,-122.7466757,1.66999996
19.159,0.5443,-1.5563,-0.6558,2.7118,-4.7798,-6.6029,-0.8554,1.0021,0.1226,49.258635,-122.7466757,1.66999996
19.216,0.5443,-1.5563,-0.6558,2.7118,-4.7798,-6.6029,-1.9588,1.5711,0.2333,49.258635,-122.7466757,1.66999996
19.217,0.0607,-1.5212,0.2205,2.7118,-4.7798,-6.6029,-1.9588,1.5711,0.2333,49.258635,-122.7466757,1.66999996
19.235,0.0607,-1.5212,0.2205,3.1843,-6.2182,-2.3504,-1.9588,1.5711,0.2333,49.258635,-122.7466757,1.66999996
19.274,0.0607,-1.5212,0.2205,3.1843,-6.2182,-2.3504,-0.396,1.5428,0.1559,49.258635,-122.7466757,1.66999996
19.274,-0.5307,-1.2596,0.3664,3.1843,-6.2182,-2.3504,-0.396,1.5428,0.1559,49.258635,-122.7466757,1.66999996
19.293,-0.5307,-1.2596,0.3664,-4.4506,-5.1262,4.841,-0.396,1.5428,0.1559,49.258635,-122.7466757,1.66999996
19.35,-0.5307,-1.2596,0.3664,-4.4506,-5.1262,4.841,-0.4639,-0.4336,-0.0196,49.258635,-122.7466757,1.66999996
19.351,-0.1445,-0.5384,-0.0406,-4.4506,-5.1262,4.841,-0.4639,-0.4336,-0.0196,49.258635,-122.7466757,1.66999996
19.369,-0.1445,-0.5384,-0.0406,-6.7604,-0.5021,3.4975,-0.4639,-0.4336,-0.0196,49.258635,-122.7466757,1.66999996
19.408,0.2505,-0.2881,-0.1317,-6.7604,-0.5021,3.4975,-0.4639,-0.4336,-0.0196,49.258635,-122.7466757,1.66999996
19.408,0.2505,-0.2881,-0.1317,-6.7604,-0.5021,3.4975,-0.5728,-0.4404,0.0828,49.258635,-122.7466757,1.66999996
19.427,0.2505,-0.2881,-0.1317,-2.3671,5.3976,0.7515,-0.5728,-0.4404,0.0828,49.258635,-122.7466757,1.66999996
19.484,0.2505,-0.2881,-0.1317,-2.3671,5.3976,0.7515,-0.4269,-0.0758,-0.1486,49.258635,-122.7466757,1.66999996
19.485,0.1549,-0.2755,-0.0298,-2.3671,5.3976,0.7515,-0.4269,-0.0758,-0.1486,49.258635,-122.7466757,1.66999996
19.504,0.1549,-0.2755,-0.0298,0.8255,6.6217,1.0211,-0.4269,-0.0758,-0.1486,49.258635,-122.7466757,1.66999996
19.542,0.1549,-0.2755,-0.0298,0.8255,6.6217,1.0211,-0.2422,-0.1786,0.073,49.258635,-122.7466757,1.66999996
19.543,0.7126,-1.0112,-0.5439,0.8255,6.6217,1.0211,-0.2422,-0.1786,0.073,49.258635,-122.7466757,1.66999996
19.561,0.7126,-1.0112,-0.5439,-1.0799,5.7781,1.654,-0.2422,-0.1786,0.073,49.258635,-122.7466757,1.66999996
19.619,0.7397,-1.3755,-1.235,-1.0799,5.7781,1.654,-0.2422,-0.1786,0.073,49.258635,-122.7466757,1.66999996
19.62,0.7397,-1.3755,-1.235,-1.0799,5.7781,1.654,-1.0116,-0.7131,-0.8297,49.258635,-122.7466757,1.66999996
19.638,0.7397,-1.3755,-1.235,6.5113,-4.4648,-4.6364,-1.0116,-0.7131,-0.8297,49.258635,-122.7466757,1.66999996
19.676,0.7397,-1.3755,-1.235,6.5113,-4.4648,-4.6364,-0.1241,1.3812,0.6277,49.258635,-122.7466757,1.66999996
19.677,-0.1599,-1.1561,0.2127,6.5113,-4.4648,-4.6364,-0.1241,1.3812,0.6277,49.258635,-122.7466757,1.66999996
19.695,-0.1599,-1.1561,0.2127,1.9675,-2.1367,-8.8069,-0.1241,1.3812,0.6277,49.258635,-122.7466757,1.66999996
19.753,-0.1599,-1.1561,0.2127,1.9675,-2.1367,-8.8069,1.2024,0.9019,0.2498,49.258635,-122.7466757,1.66999996
19.754,0.2629,-1.9289,0.6432,1.9675,-2.1367,-8.8069,1.2024,0.9019,0.2498,49.258635,-122.7466757,1.66999996
19.772,0.2629,-1.9289,0.6432,-3.0383,-4.2571,6.4516,1.2024,0.9019,0.2498,49.258635,-122.7466757,1.66999996
19.811,0.0291,-1.033,0.1077,-3.0383,-4.2571,6.4516,1.2024,0.9019,0.2498,49.258635,-122.7466757,1.66999996
19.811,0.0291,-1.033,0.1077,-3.0383,-4.2571,6.4516,1.335,-1.9964,-0.3439,49.258635,-122.7466757,1.66999996
19.83,0.0291,-1.033,0.1077,-0.5326,-7.9469,7.7384,1.335,-1.9964,-0.3439,49.258635,-122.7466757,1.66999996
19.887,0.042,-0.5073,-0.4937,-0.5326,-7.9469,7.7384,1.335,-1.9964,-0.3439,49.258635,-122.7466757,1.66999996
19.888,0.042,-0.5073,-0.4937,-0.5326,-7.9469,7.7384,1.2947,-1.7952,0.1074,49.25865066,-122.7466726,1.71000004
19.906,0.042,-0.5073,-0.4937,-1.9854,1.7754,-0.648,1.2947,-1.7952,0.1074,49.25865066,-122.7466726,1.71000004
19.944,0.0644,-0.1985,-0.2723,-1.9854,1.7754,-0.648,1.2947,-1.7952,0.1074,49.25865066,-122.7466726,1.71000004
19.945,0.0644,-0.1985,-0.2723,-1.9854,1.7754,-0.648,0.5295,-0.382,0.1687,49.25865066,-122.7466726,1.71000004
19.964,0.0644,-0.1985,-0.2723,-1.675,5.8412,-4.8313,0.5295,-0.382,0.1687,49.25865066,-122.7466726,1.71000004
20.021,0.0644,-0.1985,-0.2723,-1.675,5.8412,-4.8313,0.2892,-1.1007,0.3605,49.25865066,-122.7466726,1.71000004
20.022,0.1563,-0.5512,-0.1628,-1.675,5.8412,-4.8313,0.2892,-1.1007,0.3605,49.25865066,-122.7466726,1.71000004
20.041,0.1563,-0.5512,-0.1628,-1.2751,7.3693,-1.0482,0.2892,-1.1007,0.3605,49.25865066,-122.7466726,1.71000004
20.079,0.1563,-0.5512,-0.1628,-1.2751,7.3693,-1.0482,0.2862,-0.3736,0.1441,49.25865066,-122.7466726,1.71000004
20.079,0.6852,-1.4569,-0.4643,-1.2751,7.3693,-1.0482,0.2862,-0.3736,0.1441,49.25865066,-122.7466726,1.71000004
20.098,0.6852,-1.4569,-0.4643,1.2867,1.8001,-2.3212,0.2862,-0.3736,0.1441,49.25865066,-122.7466726,1.71000004
20.155,0.4871,-1.456,-0.4445,1.2867,1.8001,-2.3212,0.2862,-0.3736,0.1441,49.25865066,-122.7466726,1.71000004
20.156,0.4871,-1.456,-0.4445,1.2867,1.8001,-2.3212,-0.2663,1.4484,-0.2183,49.25865066,-122.7466726,1.71000004
20.175,0.4871,-1.456,-0.4445,4.8525,-5.605,-4.1529,-0.2663,1.4484,-0.2183,49.25865066,-122.7466726,1.71000004
20.213,0.4871,-1.456,-0.4445,4.8525,-5.605,-4.1529,-2.2408,0.8186,-0.3966,49.25865066,-122.7466726,1.71000004
20.214,0.1589,-1.4565,-0.3683,4.8525,-5.605,-4.1529,-2.2408,0.8186,-0.3966,49.25865066,-122.7466726,1.71000004
20.233,0.1589,-1.4565,-0.3683,1.2719,-4.7114,-2.0329,-2.2408,0.8186,-0.3966,49.25865066,-122.7466726,1.71000004
20.29,0.1589,-1.4565,-0.3683,1.2719,-4.7114,-2.0329,-2.0581,1.7021,-0.3738,49.25865066,-122.7466726,1.71000004
20.291,-0.3446,-1.441,0.0768,1.2719,-4.7114,-2.0329,-2.0581,1.7021,-0.3738,49.25865066,-122.7466726,1.71000004
20.309,-0.3446,-1.441,0.0768,-2.5631,-5.3191,0.1403,-2.0581,1.7021,-0.3738,49.25865066,-122.7466726,1.71000004
20.357,-0.148,-0.7467,0.1742,-2.5631,-5.3191,0.1403,-2.0581,1.7021,-0.3738,49.25865066,-122.7466726,1.71000004
20.357,-0.148,-0.7467,0.1742,-2.5631,-5.3191,0.1403,-0.2693,0.9424,-0.0104,49.25865066,-122.7466726,1.71000004
20.376,-0.148,-0.7467,0.1742,-6.3766,-3.2284,3.9462,-0.2693,0.9424,-0.0104,49.25865066,-122.7466726,1.71000004
20.414,0.0691,-0.3207,0.1917,-6.3766,-3.2284,3.9462,-0.2693,0.9424,-0.0104,49.25865066,-122.7466726,1.71000004
20.415,0.0691,-0.3207,0.1917,-6.3766,-3.2284,3.9462,0.221,-0.9309,0.1784,49.25865066,-122.7466726,1.71000004
20.434,0.0691,-0.3207,0.1917,-3.242,3.4378,4.8279,0.221,-0.9309,0.1784,49.25865066,-122.7466726,1.71000004
20.491,0.0691,-0.3207,0.1917,-3.242,3.4378,4.8279,0.226,-0.7928,0.1484,49.25865066,-122.7466726,1.71000004
20.492,0.3037,-0.3078,-0.0099,-3.242,3.4378,4.8279,0.226,-0.7928,0.1484,49.25865066,-122.7466726,1.71000004
20.51,0.3037,-0.3078,-0.0099,-0.8567,6.6043,3.8119,0.226,-0.7928,0.1484,49.25865066,-122.7466726,1.71000004
20.548,0.6804,-0.8084,-0.7661,-0.8567,6.6043,3.8119,0.226,-0.7928,0.1484,49.25865066,-122.7466726,1.71000004
20.549,0.6804,-0.8084,-0.7661,-0.8567,6.6043,3.8119,-0.3679,0.1624,-0.1045,49.25865066,-122.7466726,1.71000004
20.568,0.6804,-0.8084,-0.7661,1.4381,5.1374,1.0062,-0.3679,0.1624,-0.1045,49.25865066,-122.7466726,1.71000004
20.625,0.7444,-1.2318,-1.2624,1.4381,5.1374,1.0062,-0.3679,0.1624,-0.1045,49.25865066,-122.7466726,1.71000004
20.626,0.7444,-1.2318,-1.2624,1.4381,5.1374,1.0062,-0.6967,0.0715,-0.1675,49.25865066,-122.7466726,1.71000004
20.644,0.7444,-1.2318,-1.2624,4.8183,-1.2962,-6.6244,-0.6967,0.0715,-0.1675,49.25865066,-122.7466726,1.71000004
20.683,0.7444,-1.2318,-1.2624,4.8183,-1.2962,-6.6244,-0.6196,0.9164,-0.0861,49.25865066,-122.7466726,1.71000004
20.684,0.2713,-1.0593,-0.5105,4.8183,-1.2962,-6.6244,-0.6196,0.9164,-0.0861,49.25865066,-122.7466726,1.71000004
20.702,0.2713,-1.0593,-0.5105,3.357,-2.7529,-6.9837,-0.6196,0.9164,-0.0861,49.25865066,-122.7466726,1.71000004
20.76,-0.0966,-1.4305,0.5839,3.357,-2.7529,-6.9837,-0.6196,0.9164,-0.0861,49.25865066,-122.7466726,1.71000004
20.76,-0.0966,-1.4305,0.5839,3.357,-2.7529,-6.9837,0.5931,2.0685,0.6446,49.25865066,-122.7466726,1.71000004
20.779,-0.0966,-1.4305,0.5839,-1.5381,-1.175,0.024,0.5931,2.0685,0.6446,49.25865066,-122.7466726,1.71000004
20.817,0.1557,-1.6399,0.3505,-1.5381,-1.175,0.024,0.5931,2.0685,0.6446,49.25865066,-122.7466726,1.71000004
20.818,0.1557,-1.6399,0.3505,-1.5381,-1.175,0.024,1.7675,-1.7555,-0.3144,49.25865066,-122.7466726,1.71000004
20.839,0.1557,-1.6399,0.3505,-3.4445,-6.7173,8.5936,1.7675,-1.7555,-0.3144,49.25865066,-122.7466726,1.71000004
20.894,0.0624,-0.6588,-0.6756,-3.4445,-6.7173,8.5936,1.7675,-1.7555,-0.3144,49.25865066,-122.7466726,1.71000004
20.895,0.0624,-0.6588,-0.6756,-3.4445,-6.7173,8.5936,2.149,-2.4235,-0.3125,49.25866683,-122.7466694,1.73000002
20.913,0.0624,-0.6588,-0.6756,-1.5435,-3.9136,1.3449,2.149,-2.4235,-0.3125,49.25866683,-122.7466694,1.73000002
20.952,0.0624,-0.6588,-0.6756,-1.5435,-3.9136,1.3449,0.5247,0.0264,0.0219,49.25866683,-122.7466694,1.73000002
20.952,0.1681,-0.2533,-0.3166,-1.5435,-3.9136,1.3449,0.5247,0.0264,0.0219,49.25866683,-122.7466694,1.73000002
20.971,0.1681,-0.2533,-0.3166,-1.633,5.0711,-6.6894,0.5247,0.0264,0.0219,49.25866683,-122.7466694,1.73000002
21.028,0.1681,-0.2533,-0.3166,-1.633,5.0711,-6.6894,0.4451,-0.095,0.2317,49.25866683,-122.7466694,1.73000002
21.029,0.226,-0.3489,-0.0948,-1.633,5.0711,-6.6894,0.4451,-0.095,0.2317,49.25866683,-122.7466694,1.73000002
21.047,0.226,-0.3489,-0.0948,-0.7923,7.1318,-0.9692,0.4451,-0.095,0.2317,49.25866683,-122.7466694,1.73000002
21.085,0.596,-1.051,-0.2968,-0.7923,7.1318,-0.9692,0.4451,-0.095,0.2317,49.25866683,-122.7466694,1.73000002
21.086,0.596,-1.051,-0.2968,-0.7923,7.1318,-0.9692,0.2686,-0.3448,0.3844,49.25866683,-122.7466694,1.73000002
21.105,0.596,-1.051,-0.2968,0.696,4.8392,-1.3266,0.2686,-0.3448,0.3844,49.25866683,-122.7466694,1.73000002
21.162,0.596,-1.051,-0.2968,0.696,4.8392,-1.3266,0.4376,0.9077,-0.1012,49.25866683,-122.7466694,1.73000002
21.163,0.4296,-1.4975,-0.4952,0.696,4.8392,-1.3266,0.4376,0.9077,-0.1012,49.25866683,-122.7466694,1.73000002
21.181,0.4296,-1.4975,-0.4952,4.2211,-3.3816,-3.026,0.4376,0.9077,-0.1012,49.25866683,-122.7466694,1.73000002
21.221,0.483,-1.48,-0.2647,4.2211,-3.3816,-3.026,0.4376,0.9077,-0.1012,49.25866683,-122.7466694,1.73000002
21.222,0.483,-1.48,-0.2647,4.2211,-3.3816,-3.026,-1.2165,0.1085,-0.2235,49.25866683,-122.7466694,1.73000002
21.239,0.483,-1.48,-0.2647,1.0338,-5.0797,-4.2138,-1.2165,0.1085,-0.2235,49.25866683,-122.7466694,1.73000002
21.297,-0.2839,-1.5302,0.1829,1.0338,-5.0797,-4.2138,-1.2165,0.1085,-0.2235,49.25866683,-122.7466694,1.73000002
21.298,-0.2839,-1.5302,0.1829,1.0338,-5.0797,-4.2138,-1.5032,2.1732,0.0823,49.25866683,-122.7466694,1.73000002
21.315,-0.2839,-1.5302,0.1829,0.4976,-4.5001,0.0405,-1.5032,2.1732,0.0823,49.25866683,-122.7466694,1.73000002
21.354,-0.2372,-0.9864,0.0528,0.4976,-4.5001,0.0405,-1.5032,2.1732,0.0823,49.25866683,-122.7466694,1.73000002
21.355,-0.2372,-0.9864,0.0528,0.4976,-4.5001,0.0405,-0.4283,0.7073,-0.064,49.25866683,-122.7466694,1.73000002
21.373,-0.2372,-0.9864,0.0528,-6.4479,-5.2259,4.1581,-0.4283,0.7073,-0.064,49.25866683,-122.7466694,1.73000002
21.43,-0.2372,-0.9864,0.0528,-6.4479,-5.2259,4.1581,-0.4492,-0.2092,0.2483,49.25866683,-122.7466694,1.73000002
21.431,0.0043,-0.4066,-0.0403,-6.4479,-5.2259,4.1581,-0.4492,-0.2092,0.2483,49.25866683,-122.7466694,1.73000002
21.45,0.0043,-0.4066,-0.0403,-3.9408,2.083,1.393,-0.4492,-0.2092,0.2483,49.25866683,-122.7466694,1.73000002
21.488,0.0043,-0.4066,-0.0403,-3.9408,2.083,1.393,-0.1789,-0.7612,0.2978,49.25866683,-122.7466694,1.73000002
21.489,0.1151,-0.2257,0.1301,-3.9408,2.083,1.393,-0.1789,-0.7612,0.2978,49.25866683,-122.7466694,1.73000002
21.507,0.1151,-0.2257,0.1301,-1.6526,6.2654,2.2355,-0.1789,-0.7612,0.2978,49.25866683,-122.7466694,1.73000002
21.565,0.1151,-0.2257,0.1301,-1.6526,6.2654,2.2355,-0.2192,-1.1386,0.4626,49.25866683,-122.7466694,1.73000002
21.566,0.3047,-0.5773,-0.1301,-1.6526,6.2654,2.2355,-0.2192,-1.1386,0.4626,49.25866683,-122.7466694,1.73000002
21.584,0.3047,-0.5773,-0.1301,-0.2371,6.9089,3.4186,-0.2192,-1.1386,0.4626,49.25866683,-122.7466694,1.73000002
21.622,1.066,-1.4636,-1.3114,-0.2371,6.9089,3.4186,-0.2192,-1.1386,0.4626,49.25866683,-122.7466694,1.73000002
21.623,1.066,-1.4636,-1.3114,-0.2371,6.9089,3.4186,-0.9824,-0.1132,-0.2949,49.25866683,-122.7466694,1.73000002
21.641,1.066,-1.4636,-1.3114,3.3913,0.8508,-1.0038,-0.9824,-0.1132,-0.2949,49.25866683,-122.7466694,1.73000002
21.699,0.1952,-0.9165,-0.8733,3.3913,0.8508,-1.0038,-0.9824,-0.1132,-0.2949,49.25866683,-122.7466694,1.73000002
21.7,0.1952,-0.9165,-0.8733,3.3913,0.8508,-1.0038,-1.2106,0.731,-0.3387,49.25866683,-122.7466694,1.73000002
21.718,0.1952,-0.9165,-0.8733,6.7697,-4.7969,-11.0735,-1.2106,0.731,-0.3387,49.25866683,-122.7466694,1.73000002
21.757,0.1952,-0.9165,-0.8733,6.7697,-4.7969,-11.0735,1.1908,2.963,1.2906,49.25866683,-122.7466694,1.73000002
21.757,0.0355,-1.4728,0.5678,6.7697,-4.7969,-11.0735,1.1908,2.963,1.2906,49.25866683,-122.7466694,1.73000002
21.776,0.0355,-1.4728,0.5678,-2.6791,0.6022,-0.0891,1.1908,2.963,1.2906,49.25866683,-122.7466694,1.73000002
21.833,-0.0063,-1.7763,0.564,-2.6791,0.6022,-0.0891,1.1908,2.963,1.2906,49.25866683,-122.7466694,1.73000002
21.834,-0.0063,-1.7763,0.564,-2.6791,0.6022,-0.0891,0.8608,-0.6431,-0.227,49.25866683,-122.7466694,1.73000002
21.852,-0.0063,-1.7763,0.564,-0.4937,-8.3763,6.8642,0.8608,-0.6431,-0.227,49.25866683,-122.7466694,1.73000002
21.891,0.0081,-0.7633,-0.2298,-0.4937,-8.3763,6.8642,0.8608,-0.6431,-0.227,49.25868307,-122.7466677,1.71000004
21.891,0.0081,-0.7633,-0.2298,-0.4937,-8.3763,6.8642,1.4977,-2.6601,-0.4181,49.25868307,-122.7466677,1.71000004
21.91,0.0081,-0.7633,-0.2298,-2.7916,-4.347,5.1818,1.4977,-2.6601,-0.4181,49.25868307,-122.7466677,1.71000004
21.968,0.0081,-0.7633,-0.2298,-2.7916,-4.347,5.1818,1.4006,-1.3806,0.0421,49.25868307,-122.7466677,1.71000004
21.968,0.1756,-0.3062,-0.4486,-2.7916,-4.347,5.1818,1.4006,-1.3806,0.0421,49.25868307,-122.7466677,1.71000004
21.986,0.1756,-0.3062,-0.4486,-1.4752,3.9679,-3.3101,1.4006,-1.3806,0.0421,49.25868307,-122.7466677,1.71000004
22.025,0.1756,-0.3062,-0.4486,-1.4752,3.9679,-3.3101,0.7296,-0.6254,0.1207,49.25868307,-122.7466677,1.71000004
22.034,0.1982,-0.2614,-0.1709,-1.4752,3.9679,-3.3101,0.7296,-0.6254,0.1207,49.25868307,-122.7466677,1.71000004
22.044,0.1982,-0.2614,-0.1709,0.035,7.3954,-3.4445,0.7296,-0.6254,0.1207,49.25868307,-122.7466677,1.71000004
22.102,0.1982,-0.2614,-0.1709,0.035,7.3954,-3.4445,0.3766,-0.683,0.3495,49.25868307,-122.7466677,1.71000004
22.102,0.3951,-0.8441,-0.3013,0.035,7.3954,-3.4445,0.3766,-0.683,0.3495,49.25868307,-122.7466677,1.71000004
22.121,0.3951,-0.8441,-0.3013,0.5622,6.1575,-1.4747,0.3766,-0.683,0.3495,49.25868307,-122.7466677,1.71000004
22.159,0.4926,-1.6698,-0.4501,0.5622,6.1575,-1.4747,0.3766,-0.683,0.3495,49.25868307,-122.7466677,1.71000004
22.16,0.4926,-1.6698,-0.4501,0.5622,6.1575,-1.4747,0.0532,0.2144,-0.009,49.25868307,-122.7466677,1.71000004
22.178,0.4926,-1.6698,-0.4501,2.7987,-1.8161,-3.4166,0.0532,0.2144,-0.009,49.25868307,-122.7466677,1.71000004
22.236,0.4926,-1.6698,-0.4501,2.7987,-1.8161,-3.4166,-0.8159,0.9118,-0.0331,49.25868307,-122.7466677,1.71000004
22.236,0.1931,-1.4538,-0.4202,2.7987,-1.8161,-3.4166,-0.8159,0.9118,-0.0331,49.25868307,-122.7466677,1.71000004
22.255,0.1931,-1.4538,-0.4202,2.2158,-5.7632,-4.1359,-0.8159,0.9118,-0.0331,49.25868307,-122.7466677,1.71000004
22.293,0.1931,-1.4538,-0.4202,2.2158,-5.7632,-4.1359,-2.1302,0.6282,0.2329,49.25868307,-122.7466677,1.71000004
22.294,-0.0883,-1.5148,0.1664,2.2158,-5.7632,-4.1359,-2.1302,0.6282,0.2329,49.25868307,-122.7466677,1.71000004
22.312,-0.0883,-1.5148,0.1664,0.1962,-5.1462,-0.2665,-2.1302,0.6282,0.2329,49.25868307,-122.7466677,1.71000004
22.37,-0.0883,-1.5148,0.1664,0.1962,-5.1462,-0.2665,-0.3674,1.5047,0.2872,49.25868307,-122.7466677,1.71000004
22.371,-0.4784,-1.1263,0.2164,0.1962,-5.1462,-0.2665,-0.3674,1.5047,0.2872,49.25868307,-122.7466677,1.71000004
22.389,-0.4784,-1.1263,0.2164,-4.8595,-4.732,4.5574,-0.3674,1.5047,0.2872,49.25868307,-122.7466677,1.71000004
22.428,-0.4784,-1.1263,0.2164,-4.8595,-4.732,4.5574,-0.1061,0.0172,0.2111,49.25868307,-122.7466677,1.71000004
22.428,-0.0816,-0.5157,-0.009,-4.8595,-4.732,4.5574,-0.1061,0.0172,0.2111,49.25868307,-122.7466677,1.71000004
22.447,-0.0816,-0.5157,-0.009,-5.1166,0.7935,2.8378,-0.1061,0.0172,0.2111,49.25868307,-122.7466677,1.71000004
22.505,-0.0816,-0.5157,-0.009,-5.1166,0.7935,2.8378,0.0042,-0.4664,0.1144,49.25868307,-122.7466677,1.71000004
22.505,0.2648,-0.2913,-0.0859,-5.1166,0.7935,2.8378,0.0042,-0.4664,0.1144,49.25868307,-122.7466677,1.71000004
22.523,0.2648,-0.2913,-0.0859,-1.0962,5.5289,2.118,0.0042,-0.4664,0.1144,49.25868307,-122.7466677,1.71000004
22.562,0.2648,-0.2913,-0.0859,-1.0962,5.5289,2.118,-0.4578,-0.1437,-0.1626,49.25868307,-122.7466677,1.71000004
22.562,0.1639,-0.4162,-0.1477,-1.0962,5.5289,2.118,-0.4578,-0.1437,-0.1626,49.25868307,-122.7466677,1.71000004
22.581,0.1639,-0.4162,-0.1477,1.6316,6.5998,0.6527,-0.4578,-0.1437,-0.1626,49.25868307,-122.7466677,1.71000004
22.639,0.1639,-0.4162,-0.1477,1.6316,6.5998,0.6527,-0.3309,0.5108,0.1687,49.25868307,-122.7466677,1.71000004
22.639,0.6157,-1.1582,-0.7327,1.6316,6.5998,0.6527,-0.3309,0.5108,0.1687,49.25868307,-122.7466677,1.71000004
22.657,0.6157,-1.1582,-0.7327,0.1475,3.9432,0.7153,-0.3309,0.5108,0.1687,49.25868307,-122.7466677,1.71000004
22.696,0.5751,-1.3173,-1.1469,0.1475,3.9432,0.7153,-0.3309,0.5108,0.1687,49.25868307,-122.7466677,1.71000004
22.697,0.5751,-1.3173,-1.1469,0.1475,3.9432,0.7153,-1.5943,-0.7078,-0.7056,49.25868307,-122.7466677,1.71000004
22.715,0.5751,-1.3173,-1.1469,6.3288,-5.1897,-5.7199,-1.5943,-0.7078,-0.7056,49.25868307,-122.7466677,1.71000004
22.773,-0.2514,-1.0832,0.3206,6.3288,-5.1897,-5.7199,-1.5943,-0.7078,-0.7056,49.25868307,-122.7466677,1.71000004
22.773,-0.2514,-1.0832,0.3206,6.3288,-5.1897,-5.7199,0.5065,1.2267,0.0954,49.25868307,-122.7466677,1.71000004
22.792,-0.2514,-1.0832,0.3206,1.2459,-1.6928,-7.2438,0.5065,1.2267,0.0954,49.25868307,-122.7466677,1.71000004
22.83,0.2607,-1.88,0.291,1.2459,-1.6928,-7.2438,0.5065,1.2267,0.0954,49.25868307,-122.7466677,1.71000004
22.831,0.2607,-1.88,0.291,1.2459,-1.6928,-7.2438,0.8566,-0.0055,0.4465,49.25868307,-122.7466677,1.71000004
22.849,0.2607,-1.88,0.291,-4.7331,-1.9433,6.9299,0.8566,-0.0055,0.4465,49.25868307,-122.7466677,1.71000004
22.907,0.2607,-1.88,0.291,-4.7331,-1.9433,6.9299,1.7162,-0.757,-0.7769,49.25869872,-122.7466666,1.71000004
22.908,0.1512,-1.2025,0.0923,-4.7331,-1.9433,6.9299,1.7162,-0.757,-0.7769,49.25869872,-122.7466666,1.71000004
22.926,0.1512,-1.2025,0.0923,1.6405,-9.1553,5.4873,1.7162,-0.757,-0.7769,49.25869872,-122.7466666,1.71000004
22.964,0.0488,-0.4574,-0.3969,1.6405,-9.1553,5.4873,1.7162,-0.757,-0.7769,49.25869872,-122.7466666,1.71000004
22.965,0.0488,-0.4574,-0.3969,1.6405,-9.1553,5.4873,1.4312,-1.5695,-0.0598,49.25869872,-122.7466666,1.71000004
22.984,0.0488,-0.4574,-0.3969,-1.1515,0.8954,-0.445,1.4312,-1.5695,-0.0598,49.25869872,-122.7466666,1.71000004
23.041,0.0488,-0.4574,-0.3969,-1.1515,0.8954,-0.445,0.9203,-0.4596,0.0718,49.25869872,-122.7466666,1.71000004
23.042,0.0445,-0.1222,-0.3344,-1.1515,0.8954,-0.445,0.9203,-0.4596,0.0718,49.25869872,-122.7466666,1.71000004
23.06,0.0445,-0.1222,-0.3344,-1.4063,6.5567,-4.1721,0.9203,-0.4596,0.0718,49.25869872,-122.7466666,1.71000004
23.099,0.108,-0.5644,-0.1419,-1.4063,6.5567,-4.1721,0.9203,-0.4596,0.0718,49.25869872,-122.7466666,1.71000004
23.099,0.108,-0.5644,-0.1419,-1.4063,6.5567,-4.1721,0.1927,-0.8501,0.5389,49.25869872,-122.7466666,1.71000004
23.118,0.108,-0.5644,-0.1419,-1.1295,8.2459,-2.095,0.1927,-0.8501,0.5389,49.25869872,-122.7466666,1.71000004
23.175,0.108,-0.5644,-0.1419,-1.1295,8.2459,-2.095,0.078,-0.9255,0.1734,49.25869872,-122.7466666,1.71000004
23.176,0.6322,-1.5444,-0.3292,-1.1295,8.2459,-2.095,0.078,-0.9255,0.1734,49.25869872,-122.7466666,1.71000004
23.194,0.6322,-1.5444,-0.3292,1.0971,1.3128,-1.5576,0.078,-0.9255,0.1734,49.25869872,-122.7466666,1.71000004
23.233,0.6322,-1.5444,-0.3292,1.0971,1.3128,-1.5576,0.0478,0.8063,-0.2289,49.25869872,-122.7466666,1.71000004
23.233,0.4395,-1.4814,-0.5662,1.0971,1.3128,-1.5576,0.0478,0.8063,-0.2289,49.25869872,-122.7466666,1.71000004
23.252,0.4395,-1.4814,-0.5662,4.6037,-6.2814,-3.5391,0.0478,0.8063,-0.2289,49.25869872,-122.7466666,1.71000004
23.309,0.2073,-1.2319,-0.2904,4.6037,-6.2814,-3.5391,0.0478,0.8063,-0.2289,49.25869872,-122.7466666,1.71000004
23.31,0.2073,-1.2319,-0.2904,4.6037,-6.2814,-3.5391,-1.5242,0.3404,-0.0785,49.25869872,-122.7466666,1.71000004
23.329,0.2073,-1.2319,-0.2904,2.3598,-4.0878,-3.7969,-1.5242,0.3404,-0.0785,49.25869872,-122.7466666,1.71000004
23.379,0.2073,-1.2319,-0.2904,2.3598,-4.0878,-3.7969,-1.3666,1.8459,0.1312,49.25869872,-122.7466666,1.71000004
23.379,-0.3214,-1.513,0.2184,2.3598,-4.0878,-3.7969,-1.3666,1.8459,0.1312,49.25869872,-122.7466666,1.71000004
23.396,-0.3214,-1.513,0.2184,-1.5206,-2.4005,0.2618,-1.3666,1.8459,0.1312,49.25869872,-122.7466666,1.71000004
23.434,-0.3214,-1.513,0.2184,-1.5206,-2.4005,0.2618,-0.4955,0.568,0.0835,49.25869872,-122.7466666,1.71000004
23.434,-0.3228,-0.8752,0.2092,-1.5206,-2.4005,0.2618,-0.4955,0.568,0.0835,49.25869872,-122.7466666,1.71000004
23.453,-0.3228,-0.8752,0.2092,-5.6625,-4.8648,5.4553,-0.4955,0.568,0.0835,49.25869872,-122.7466666,1.71000004
23.511,-0.3228,-0.8752,0.2092,-5.6625,-4.8648,5.4553,-0.185,-0.6132,0.3233,49.25869872,-122.7466666,1.71000004
23.511,0.0011,-0.3408,0.0989,-5.6625,-4.8648,5.4553,-0.185,-0.6132,0.3233,49.25869872,-122.7466666,1.71000004
23.53,0.0011,-0.3408,0.0989,-3.5238,3.3669,3.4347,-0.185,-0.6132,0.3233,49.25869872,-122.7466666,1.71000004
23.568,0.0011,-0.3408,0.0989,-3.5238,3.3669,3.4347,0.4295,-0.6555,0.164,49.25869872,-122.7466666,1.71000004
23.569,0.2321,-0.2418,0.0632,-3.5238,3.3669,3.4347,0.4295,-0.6555,0.164,49.25869872,-122.7466666,1.71000004
23.587,0.2321,-0.2418,0.0632,-0.4097,6.8749,3.0191,0.4295,-0.6555,0.164,49.25869872,-122.7466666,1.71000004
23.645,0.5025,-0.8074,-0.5359,-0.4097,6.8749,3.0191,0.4295,-0.6555,0.164,49.25869872,-122.7466666,1.71000004
23.647,0.5025,-0.8074,-0.5359,-0.4097,6.8749,3.0191,-0.0459,-0.1898,0.1373,49.25869872,-122.7466666,1.71000004
23.664,0.5025,-0.8074,-0.5359,1.543,6.3257,1.7784,-0.0459,-0.1898,0.1373,49.25869872,-122.7466666,1.71000004
23.702,0.6334,-1.4044,-1.2038,1.543,6.3257,1.7784,-0.0459,-0.1898,0.1373,49.25869872,-122.7466666,1.71000004
23.703,0.6334,-1.4044,-1.2038,1.543,6.3257,1.7784,-1.4985,0.5291,-0.4235,49.25869872,-122.7466666,1.71000004
23.722,0.6334,-1.4044,-1.2038,4.7941,-0.889,-5.017,-1.4985,0.5291,-0.4235,49.25869872,-122.7466666,1.71000004
23.779,0.6334,-1.4044,-1.2038,4.7941,-0.889,-5.017,-1.1278,0.6342,-0.2322,49.25869872,-122.7466666,1.71000004
23.78,0.0632,-0.9902,-0.5003,4.7941,-0.889,-5.017,-1.1278,0.6342,-0.2322,49.25869872,-122.7466666,1.71000004
23.798,0.0632,-0.9902,-0.5003,2.8749,-4.339,-8.3845,-1.1278,0.6342,-0.2322,49.25869872,-122.7466666,1.71000004
23.837,0.0632,-0.9902,-0.5003,2.8749,-4.339,-8.3845,1.0552,1.0698,1.092,49.25869872,-122.7466666,1.71000004
23.837,0.1142,-1.6838,0.3419,2.8749,-4.339,-8.3845,1.0552,1.0698,1.092,49.25869872,-122.7466666,1.71000004
23.856,0.1142,-1.6838,0.3419,-2.5915,-0.0996,2.9734,1.0552,1.0698,1.092,49.25869872,-122.7466666,1.71000004
23.914,0.0557,-1.5646,0.5689,-2.5915,-0.0996,2.9734,1.0552,1.0698,1.092,49.2587135,-122.7466654,1.59000003
23.914,0.0557,-1.5646,0.5689,-2.5915,-0.0996,2.9734,1.6109,0.1092,-0.6719,49.2587135,-122.7466654,1.59000003
23.933,0.0557,-1.5646,0.5689,0.864,-9.3643,5.6159,1.6109,0.1092,-0.6719,49.2587135,-122.7466654,1.59000003
23.971,-0.0104,-0.7169,-0.323,0.864,-9.3643,5.6159,1.6109,0.1092,-0.6719,49.2587135,-122.7466654,1.59000003
23.972,-0.0104,-0.7169,-0.323,0.864,-9.3643,5.6159,1.365,-2.3271,-0.2774,49.2587135,-122.7466654,1.59000003
23.99,-0.0104,-0.7169,-0.323,-2.1123,-2.3415,3.758,1.365,-2.3271,-0.2774,49.2587135,-122.7466654,1.59000003
24.048,0.116,-0.1922,-0.4286,-2.1123,-2.3415,3.758,1.365,-2.3271,-0.2774,49.2587135,-122.7466654,1.59000003
24.049,0.116,-0.1922,-0.4286,-2.1123,-2.3415,3.758,1.0959,-1.0281,-0.1088,49.2587135,-122.7466654,1.59000003
24.067,0.116,-0.1922,-0.4286,-1.6946,4.608,-4.3701,1.0959,-1.0281,-0.1088,49.2587135,-122.7466654,1.59000003
24.105,0.116,-0.1922,-0.4286,-1.6946,4.608,-4.3701,0.7145,-0.9298,-0.0764,49.2587135,-122.7466654,1.59000003
24.106,0.0189,-0.3012,-0.0493,-1.6946,4.608,-4.3701,0.7145,-0.9298,-0.0764,49.2587135,-122.7466654,1.59000003
24.124,0.0189,-0.3012,-0.0493,-0.5511,8.1388,-2.5864,0.7145,-0.9298,-0.0764,49.2587135,-122.7466654,1.59000003
24.182,0.0189,-0.3012,-0.0493,-0.5511,8.1388,-2.5864,0.732,-1.4075,0.2881,49.2587135,-122.7466654,1.59000003
24.183,0.6006,-1.2088,-0.3427,-0.5511,8.1388,-2.5864,0.732,-1.4075,0.2881,49.2587135,-122.7466654,1.59000003
24.201,0.6006,-1.2088,-0.3427,-1.0787,5.3884,-0.8549,0.732,-1.4075,0.2881,49.2587135,-122.7466654,1.59000003
24.239,0.4648,-1.5701,-0.702,-1.0787,5.3884,-0.8549,0.732,-1.4075,0.2881,49.2587135,-122.7466654,1.59000003
24.24,0.4648,-1.5701,-0.702,-1.0787,5.3884,-0.8549,-0.185,1.4169,-0.0486,49.2587135,-122.7466654,1.59000003
24.258,0.4648,-1.5701,-0.702,6.3359,-5.0817,-4.4347,-0.185,1.4169,-0.0486,49.2587135,-122.7466654,1.59000003
24.317,0.2596,-1.564,-0.1093,6.3359,-5.0817,-4.4347,-0.185,1.4169,-0.0486,49.2587135,-122.7466654,1.59000003
24.317,0.2596,-1.564,-0.1093,6.3359,-5.0817,-4.4347,-1.4907,1.1503,-0.0572,49.2587135,-122.7466654,1.59000003
24.335,0.2596,-1.564,-0.1093,0.6269,-5.483,-4.5808,-1.4907,1.1503,-0.0572,49.2587135,-122.7466654,1.59000003
24.374,0.2596,-1.564,-0.1093,0.6269,-5.483,-4.5808,-1.4519,1.9957,-0.1373,49.2587135,-122.7466654,1.59000003
24.374,-0.3276,-1.4854,0.2635,0.6269,-5.483,-4.5808,-1.4519,1.9957,-0.1373,49.2587135,-122.7466654,1.59000003
24.393,-0.3276,-1.4854,0.2635,-0.2586,-5.0604,1.1428,-1.4519,1.9957,-0.1373,49.2587135,-122.7466654,1.59000003
24.45,-0.3703,-0.821,0.1599,-0.2586,-5.0604,1.1428,-1.4519,1.9957,-0.1373,49.2587135,-122.7466654,1.59000003
24.451,-0.3703,-0.821,0.1599,-0.2586,-5.0604,1.1428,-0.4922,0.6932,-0.0429,49.2587135,-122.7466654,1.59000003
24.469,-0.3703,-0.821,0.1599,-6.3307,-3.8913,5.0509,-0.4922,0.6932,-0.0429,49.2587135,-122.7466654,1.59000003
24.507,-0.3703,-0.821,0.1599,-6.3307,-3.8913,5.0509,-0.299,-0.016,0.3394,49.2587135,-122.7466654,1.59000003
24.508,-0.0167,-0.3391,0.0016,-6.3307,-3.8913,5.0509,-0.299,-0.016,0.3394,49.2587135,-122.7466654,1.59000003
24.526,-0.0167,-0.3391,0.0016,-4.3138,3.7175,2.5643,-0.299,-0.016,0.3394,49.2587135,-122.7466654,1.59000003
24.585,-0.0167,-0.3391,0.0016,-4.3138,3.7175,2.5643,-0.5721,-0.6993,-0.0856,49.2587135,-122.7466654,1.59000003
24.585,0.36,-0.3363,0.0181,-4.3138,3.7175,2.5643,-0.5721,-0.6993,-0.0856,49.2587135,-122.7466654,1.59000003
24.604,0.36,-0.3363,0.0181,-0.5431,6.4384,2.2434,-0.5721,-0.6993,-0.0856,49.2587135,-122.7466654,1.59000003
24.642,0.36,-0.3363,0.0181,-0.5431,6.4384,2.2434,-0.1545,0.1277,0.1599,49.2587135,-122.7466654,1.59000003
24.643,0.4244,-0.6175,-0.2717,-0.5431,6.4384,2.2434,-0.1545,0.1277,0.1599,49.2587135,-122.7466654,1.59000003
24.661,0.4244,-0.6175,-0.2717,1.8565,5.8539,2.7693,-0.1545,0.1277,0.1599,49.2587135,-122.7466654,1.59000003
