
time,gFx,gFy,gFz,ax,ay,az,wx,wy,wz,Latitude,Longitude,Speed (m/s),
0.0560,-0.1203,0.6612,0.7711,0.0000,0.0000,0.0000,0.0000,0.0000,0.0000,0.00000000,0.00000000,0.00000000,
0.0560,-0.1030,0.7058,0.8478,0.0000,0.0000,0.0000,0.0000,0.0000,0.0000,49.25983368,-122.75416163,1.09000003,
0.0990,-0.0573,0.7163,0.7562,0.0000,0.0000,0.0000,0.0000,0.0000,0.0000,49.25983368,-122.75416163,1.09000003,
0.1000,-0.0531,0.7352,0.6078,0.0000,0.0000,0.0000,0.0000,0.0000,0.0000,49.25983368,-122.75416163,1.09000003,
0.1010,-0.0531,0.7352,0.6078,0.0000,0.0000,0.0000,0.4219,0.1234,-0.1174,49.25983368,-122.75416163,1.09000003,
0.1030,-0.1098,0.7383,0.6719,0.0000,0.0000,0.0000,0.4219,0.1234,-0.1174,49.25983368,-122.75416163,1.09000003,
0.1690,-0.1229,0.6987,0.8261,0.0000,0.0000,0.0000,0.4219,0.1234,-0.1174,49.25983368,-122.75416163,1.09000003,
0.1710,-0.1229,0.6987,0.8261,0.0000,0.0000,0.0000,-0.1706,0.0316,0.0943,49.25983368,-122.75416163,1.09000003,
0.1720,-0.0879,0.6600,1.0069,0.0000,0.0000,0.0000,-0.1706,0.0316,0.0943,49.25983368,-122.75416163,1.09000003,
0.1730,0.0131,0.6768,1.1724,0.0000,0.0000,0.0000,-0.1706,0.0316,0.0943,49.25983368,-122.75416163,1.09000003,
0.1900,0.1457,0.7456,1.2514,0.0000,0.0000,0.0000,-0.1706,0.0316,0.0943,49.25983368,-122.75416163,1.09000003,
0.1910,0.1457,0.7456,1.2514,0.0000,0.0000,0.0000,-0.1706,0.0316,0.0943,49.25983368,-122.75416163,1.09000003,
0.2380,0.1846,0.7810,1.0340,0.0000,0.0000,0.0000,-0.1706,0.0316,0.0943,49.25983368,-122.75416163,1.09000003,
0.2400,0.0206,0.7912,0.8470,0.0000,0.0000,0.0000,-0.1706,0.0316,0.0943,49.25983368,-122.75416163,1.09000003,
0.2440,0.0206,0.7912,0.8470,0.0000,0.0000,0.0000,0.5092,-0.0900,-0.4457,49.25983368,-122.75416163,1.09000003,
0.2610,0.0602,0.6515,0.9045,0.0000,0.0000,0.0000,0.5092,-0.0900,-0.4457,49.25983368,-122.75416163,1.09000003,
0.2620,0.0602,0.6515,0.9045,0.8260,-0.1333,2.2108,0.5092,-0.0900,-0.4457,49.25983368,-122.75416163,1.09000003,
0.2640,0.0705,0.5521,0.9758,0.8260,-0.1333,2.2108,0.5092,-0.0900,-0.4457,49.25983368,-122.75416163,1.09000003,
0.3040,-0.0059,0.5263,0.9542,0.8260,-0.1333,2.2108,0.5092,-0.0900,-0.4457,49.25983368,-122.75416163,1.09000003,
0.3050,-0.1050,0.4320,0.8919,0.8260,-0.1333,2.2108,0.5092,-0.0900,-0.4457,49.25983368,-122.75416163,1.09000003,
0.3110,-0.1050,0.4320,0.8919,0.8260,-0.1333,2.2108,-0.6944,0.8214,-0.4215,49.25983368,-122.75416163,1.09000003,
0.3320,-0.1691,0.3702,0.9435,0.8260,-0.1333,2.2108,-0.6944,0.8214,-0.4215,49.25983368,-122.75416163,1.09000003,
0.3330,-0.1691,0.3702,0.9435,1.1190,0.1858,-0.2802,-0.6944,0.8214,-0.4215,49.25983368,-122.75416163,1.09000003,
0.3700,-0.1406,0.3459,1.0948,1.1190,0.1858,-0.2802,-0.6944,0.8214,-0.4215,49.25983368,-122.75416163,1.09000003,
0.3720,-0.0787,0.3614,1.0041,1.1190,0.1858,-0.2802,-0.6944,0.8214,-0.4215,49.25983368,-122.75416163,1.09000003,
0.3820,-0.0787,0.3614,1.0041,1.1190,0.1858,-0.2802,-0.7082,0.3846,-0.1345,49.25983368,-122.75416163,1.09000003,
0.4030,-0.0787,0.3614,1.0041,-0.2352,-1.4884,-0.0945,-0.7082,0.3846,-0.1345,49.25983368,-122.75416163,1.09000003,
0.4040,-0.0369,0.4820,0.7072,-0.2352,-1.4884,-0.0945,-0.7082,0.3846,-0.1345,49.25983368,-122.75416163,1.09000003,
0.4050,-0.0123,0.5102,0.5706,-0.2352,-1.4884,-0.0945,-0.7082,0.3846,-0.1345,49.25983368,-122.75416163,1.09000003,
0.4370,-0.0452,0.4653,0.6057,-0.2352,-1.4884,-0.0945,-0.7082,0.3846,-0.1345,49.25983368,-122.75416163,1.09000003,
0.4530,-0.0795,0.4014,0.6028,-0.2352,-1.4884,-0.0945,-0.7082,0.3846,-0.1345,49.25983368,-122.75416163,1.09000003,
0.4540,-0.0795,0.4014,0.6028,-0.2352,-1.4884,-0.0945,-0.1809,0.0067,-0.3821,49.25983368,-122.75416163,1.09000003,
0.4750,-0.0795,0.4014,0.6028,0.2963,-1.0297,-1.2182,-0.1809,0.0067,-0.3821,49.25983368,-122.75416163,1.09000003,
0.4760,-0.1070,0.3993,0.4689,0.2963,-1.0297,-1.2182,-0.1809,0.0067,-0.3821,49.25983368,-122.75416163,1.09000003,
0.4930,-0.1283,0.4576,0.4125,0.2963,-1.0297,-1.2182,-0.1809,0.0067,-0.3821,49.25983368,-122.75416163,1.09000003,
0.5220,-0.1445,0.3853,0.7032,0.2963,-1.0297,-1.2182,-0.1809,0.0067,-0.3821,49.25983368,-122.75416163,1.09000003,
0.5240,-0.1445,0.3853,0.7032,0.2963,-1.0297,-1.2182,-0.6788,-0.4721,-0.2034,49.25983368,-122.75416163,1.09000003,
0.5460,-0.1445,0.3853,0.7032,-0.0889,-0.5349,-3.5161,-0.6788,-0.4721,-0.2034,49.25983368,-122.75416163,1.09000003,
0.5470,-0.2471,0.3622,1.0547,-0.0889,-0.5349,-3.5161,-0.6788,-0.4721,-0.2034,49.25983368,-122.75416163,1.09000003,
0.5480,-0.1195,0.3260,0.9339,-0.0889,-0.5349,-3.5161,-0.6788,-0.4721,-0.2034,49.25983368,-122.75416163,1.09000003,
0.5710,-0.1127,0.3553,0.8197,-0.0889,-0.5349,-3.5161,-0.6788,-0.4721,-0.2034,49.25983368,-122.75416163,1.09000003,
0.5960,-0.1127,0.3553,0.8197,-0.0889,-0.5349,-3.5161,-0.2259,0.1086,0.2406,49.25983368,-122.75416163,1.09000003,
0.5980,-0.1753,0.4412,0.8630,-0.0889,-0.5349,-3.5161,-0.2259,0.1086,0.2406,49.25983368,-122.75416163,1.09000003,
0.6170,-0.1753,0.4412,0.8630,-0.9133,-0.7984,-0.5615,-0.2259,0.1086,0.2406,49.25983368,-122.75416163,1.09000003,
0.6190,-0.1120,0.4562,0.8444,-0.9133,-0.7984,-0.5615,-0.2259,0.1086,0.2406,49.25983368,-122.75416163,1.09000003,
0.6380,-0.1065,0.4956,0.8824,-0.9133,-0.7984,-0.5615,-0.2259,0.1086,0.2406,49.25983368,-122.75416163,1.09000003,
0.6690,-0.1065,0.4956,0.8824,-0.9133,-0.7984,-0.5615,-0.3169,-0.6796,0.5632,49.25983368,-122.75416163,1.09000003,
0.6720,-0.0996,0.5522,0.8925,-0.9133,-0.7984,-0.5615,-0.3169,-0.6796,0.5632,49.25983368,-122.75416163,1.09000003,
0.6880,-0.1223,0.6144,1.0628,-0.9133,-0.7984,-0.5615,-0.3169,-0.6796,0.5632,49.25983368,-122.75416163,1.09000003,
0.6900,-0.1223,0.6144,1.0628,-1.1036,-0.0736,-0.4818,-0.3169,-0.6796,0.5632,49.25983368,-122.75416163,1.09000003,
0.6920,-0.0110,0.5287,1.2675,-1.1036,-0.0736,-0.4818,-0.3169,-0.6796,0.5632,49.25983368,-122.75416163,1.09000003,
0.7220,-0.0851,0.4149,1.3243,-1.1036,-0.0736,-0.4818,-0.3169,-0.6796,0.5632,49.25983368,-122.75416163,1.09000003,
0.7380,-0.0851,0.4149,1.3243,-1.1036,-0.0736,-0.4818,-0.0993,0.2148,0.5107,49.25983368,-122.75416163,1.09000003,
0.7400,-0.1104,0.5145,1.1021,-1.1036,-0.0736,-0.4818,-0.0993,0.2148,0.5107,49.25983368,-122.75416163,1.09000003,
0.7580,-0.1104,0.5145,1.1021,-0.4398,1.1130,1.3119,-0.0993,0.2148,0.5107,49.25983368,-122.75416163,1.09000003,
0.7590,-0.0300,0.5442,0.8142,-0.4398,1.1130,1.3119,-0.0993,0.2148,0.5107,49.25983368,-122.75416163,1.09000003,
0.7690,-0.1471,0.5603,0.9929,-0.4398,1.1130,1.3119,-0.0993,0.2148,0.5107,49.25983368,-122.75416163,1.09000003,
0.8080,-0.1471,0.5603,0.9929,-0.4398,1.1130,1.3119,-0.2416,0.1160,0.7456,49.25983368,-122.75416163,1.09000003,
0.8090,-0.1435,0.4647,1.3557,-0.4398,1.1130,1.3119,-0.2416,0.1160,0.7456,49.25983323,-122.75417577,1.14999998,
0.8290,-0.0415,0.3208,1.2656,-0.4398,1.1130,1.3119,-0.2416,0.1160,0.7456,49.25983323,-122.75417577,1.14999998,
0.8310,-0.0415,0.3208,1.2656,-0.5778,0.5276,1.1615,-0.2416,0.1160,0.7456,49.25983323,-122.75417577,1.14999998,
0.8320,-0.0519,0.3032,1.0541,-0.5778,0.5276,1.1615,-0.2416,0.1160,0.7456,49.25983323,-122.75417577,1.14999998,
0.8810,-0.0261,0.2720,1.0997,-0.5778,0.5276,1.1615,-0.2416,0.1160,0.7456,49.25983323,-122.75417577,1.14999998,
0.8830,-0.0261,0.2720,1.0997,-0.5778,0.5276,1.1615,0.0340,-0.0789,0.7818,49.25983323,-122.75417577,1.14999998,
0.8840,0.0243,0.2370,1.1245,-0.5778,0.5276,1.1615,0.0340,-0.0789,0.7818,49.25983323,-122.75417577,1.14999998,
0.9020,0.0243,0.2370,1.1245,-0.8680,-0.5283,2.5276,0.0340,-0.0789,0.7818,49.25983323,-122.75417577,1.14999998,
0.9040,0.0180,0.2001,1.0467,-0.8680,-0.5283,2.5276,0.0340,-0.0789,0.7818,49.25983323,-122.75417577,1.14999998,
0.9210,0.0401,0.2279,0.8328,-0.8680,-0.5283,2.5276,0.0340,-0.0789,0.7818,49.25983323,-122.75417577,1.14999998,
0.9510,0.0846,0.2906,0.6264,-0.8680,-0.5283,2.5276,0.0340,-0.0789,0.7818,49.25983323,-122.75417577,1.14999998,
0.9530,0.0846,0.2906,0.6264,-0.8680,-0.5283,2.5276,0.5450,0.2430,0.6030,49.25983323,-122.75417577,1.14999998,
0.9710,0.0846,0.2906,0.6264,0.1078,-2.2666,1.1520,0.5450,0.2430,0.6030,49.25983323,-122.75417577,1.14999998,
0.9730,0.0978,0.3237,0.5103,0.1078,-2.2666,1.1520,0.5450,0.2430,0.6030,49.25983323,-122.75417577,1.14999998,
0.9740,-0.0005,0.3115,0.5217,0.1078,-2.2666,1.1520,0.5450,0.2430,0.6030,49.25983323,-122.75417577,1.14999998,
1.0220,-0.0811,0.2895,0.5679,0.1078,-2.2666,1.1520,0.5450,0.2430,0.6030,49.25983323,-122.75417577,1.14999998,
1.0240,-0.0811,0.2895,0.5679,0.1078,-2.2666,1.1520,0.6276,-0.1425,0.2607,49.25983323,-122.75417577,1.14999998,
1.0250,-0.0562,0.3286,0.5328,0.1078,-2.2666,1.1520,0.6276,-0.1425,0.2607,49.25983323,-122.75417577,1.14999998,
1.0380,0.0078,0.4433,0.5271,0.1078,-2.2666,1.1520,0.6276,-0.1425,0.2607,49.25983323,-122.75417577,1.14999998,
1.0430,0.0078,0.4433,0.5271,0.3063,-1.8867,-3.0542,0.6276,-0.1425,0.2607,49.25983323,-122.75417577,1.14999998,
1.0940,-0.0195,0.4956,0.5582,0.3063,-1.8867,-3.0542,0.6276,-0.1425,0.2607,49.25983323,-122.75417577,1.14999998,
1.0960,-0.0195,0.4956,0.5582,0.3063,-1.8867,-3.0542,0.2838,-0.5984,-0.1772,49.25983323,-122.75417577,1.14999998,
1.0970,-0.0994,0.5009,0.6242,0.3063,-1.8867,-3.0542,0.2838,-0.5984,-0.1772,49.25983323,-122.75417577,1.14999998,
1.1030,-0.1609,0.5356,0.7444,0.3063,-1.8867,-3.0542,0.2838,-0.5984,-0.1772,49.25983323,-122.75417577,1.14999998,
1.1140,-0.1505,0.5438,0.8511,0.3063,-1.8867,-3.0542,0.2838,-0.5984,-0.1772,49.25983323,-122.75417577,1.14999998,
1.1150,-0.1505,0.5438,0.8511,-0.9013,-1.1186,-3.1776,0.2838,-0.5984,-0.1772,49.25983323,-122.75417577,1.14999998,
1.1650,-0.1505,0.5438,0.8511,-0.9013,-1.1186,-3.1776,-0.1769,-0.5074,0.0215,49.25983323,-122.75417577,1.14999998,
1.1670,0.0987,0.4787,1.0621,-0.9013,-1.1186,-3.1776,-0.1769,-0.5074,0.0215,49.25983323,-122.75417577,1.14999998,
1.1680,0.1921,0.5394,1.1985,-0.9013,-1.1186,-3.1776,-0.1769,-0.5074,0.0215,49.25983323,-122.75417577,1.14999998,
1.1850,0.0287,0.5607,1.0783,-0.9013,-1.1186,-3.1776,-0.1769,-0.5074,0.0215,49.25983323,-122.75417577,1.14999998,
1.1860,0.0287,0.5607,1.0783,-1.7666,0.4177,-1.4146,-0.1769,-0.5074,0.0215,49.25983323,-122.75417577,1.14999998,
1.2350,0.0287,0.5607,1.0783,-1.7666,0.4177,-1.4146,-0.3440,-0.1811,-0.0360,49.25983323,-122.75417577,1.14999998,
1.2370,-0.0900,0.5611,0.9648,-1.7666,0.4177,-1.4146,-0.3440,-0.1811,-0.0360,49.25983323,-122.75417577,1.14999998,
1.2380,-0.0167,0.5538,1.0088,-1.7666,0.4177,-1.4146,-0.3440,-0.1811,-0.0360,49.25983323,-122.75417577,1.14999998,
1.2390,0.1170,0.4951,1.2416,-1.7666,0.4177,-1.4146,-0.3440,-0.1811,-0.0360,49.25983323,-122.75417577,1.14999998,
1.2550,0.1170,0.4951,1.2416,-0.0371,0.6580,2.0531,-0.3440,-0.1811,-0.0360,49.25983323,-122.75417577,1.14999998,
1.2570,0.2840,0.4441,1.4506,-0.0371,0.6580,2.0531,-0.3440,-0.1811,-0.0360,49.25983323,-122.75417577,1.14999998,
1.3030,0.3206,0.4296,1.4209,-0.0371,0.6580,2.0531,-0.3440,-0.1811,-0.0360,49.25983323,-122.75417577,1.14999998,
1.3050,0.3325,0.5410,1.2199,-0.0371,0.6580,2.0531,-0.3440,-0.1811,-0.0360,49.25983323,-122.75417577,1.14999998,
1.3060,0.3325,0.5410,1.2199,-0.0371,0.6580,2.0531,-0.0280,0.0784,0.3645,49.25983323,-122.75417577,1.14999998,
1.3260,0.3325,0.5410,1.2199,0.1048,0.3841,2.8634,-0.0280,0.0784,0.3645,49.25983323,-122.75417577,1.14999998,
1.3280,0.3410,0.5161,1.0819,0.1048,0.3841,2.8634,-0.0280,0.0784,0.3645,49.25983323,-122.75417577,1.14999998,
1.3710,0.3523,0.4457,1.0402,0.1048,0.3841,2.8634,-0.0280,0.0784,0.3645,49.25983323,-122.75417577,1.14999998,
1.3730,0.3445,0.4131,1.0903,0.1048,0.3841,2.8634,-0.0280,0.0784,0.3645,49.25983323,-122.75417577,1.14999998,
1.3770,0.3445,0.4131,1.0903,0.1048,0.3841,2.8634,-0.0422,-0.4342,-0.1844,49.25983323,-122.75417577,1.14999998,
1.3990,0.3436,0.4047,1.1001,0.1048,0.3841,2.8634,-0.0422,-0.4342,-0.1844,49.25983323,-122.75417577,1.14999998,
1.4010,0.3436,0.4047,1.1001,2.1471,0.2484,2.8632,-0.0422,-0.4342,-0.1844,49.25983323,-122.75417577,1.14999998,
1.4020,0.3198,0.4118,0.9470,2.1471,0.2484,2.8632,-0.0422,-0.4342,-0.1844,49.25983323,-122.75417577,1.14999998,
1.4390,0.2954,0.4824,0.8069,2.1471,0.2484,2.8632,-0.0422,-0.4342,-0.1844,49.25983323,-122.75417577,1.14999998,
1.4500,0.2370,0.4561,0.6972,2.1471,0.2484,2.8632,-0.0422,-0.4342,-0.1844,49.25983323,-122.75417577,1.14999998,
1.4520,0.2370,0.4561,0.6972,2.1471,0.2484,2.8632,0.0605,-0.3290,-0.6101,49.25983323,-122.75417577,1.14999998,
1.4700,0.1782,0.3883,0.6150,2.1471,0.2484,2.8632,0.0605,-0.3290,-0.6101,49.25983323,-122.75417577,1.14999998,
1.4730,0.1782,0.3883,0.6150,2.0663,-0.6628,1.2742,0.0605,-0.3290,-0.6101,49.25983323,-122.75417577,1.14999998,
1.4940,0.1123,0.3735,0.5978,2.0663,-0.6628,1.2742,0.0605,-0.3290,-0.6101,49.25983323,-122.75417577,1.14999998,
1.5040,0.0843,0.3520,0.4865,2.0663,-0.6628,1.2742,0.0605,-0.3290,-0.6101,49.25983323,-122.75417577,1.14999998,
1.5200,0.0843,0.3520,0.4865,2.0663,-0.6628,1.2742,0.3997,-0.3083,-1.2101,49.25983323,-122.75417577,1.14999998,
1.5400,0.0843,0.3520,0.4865,1.1605,-0.7366,-1.9416,0.3997,-0.3083,-1.2101,49.25983323,-122.75417577,1.14999998,
1.5430,-0.0275,0.3340,0.4775,1.1605,-0.7366,-1.9416,0.3997,-0.3083,-1.2101,49.25983323,-122.75417577,1.14999998,
1.5450,-0.0857,0.3072,0.5125,1.1605,-0.7366,-1.9416,0.3997,-0.3083,-1.2101,49.25983323,-122.75417577,1.14999998,
1.5700,-0.0606,0.3013,0.6293,1.1605,-0.7366,-1.9416,0.3997,-0.3083,-1.2101,49.25983323,-122.75417577,1.14999998,
1.5890,-0.0606,0.3013,0.6293,1.1605,-0.7366,-1.9416,0.2354,-0.0637,-0.6484,49.25983323,-122.75417577,1.14999998,
1.5900,-0.0344,0.3413,0.6906,1.1605,-0.7366,-1.9416,0.2354,-0.0637,-0.6484,49.25983323,-122.75417577,1.14999998,
1.6100,0.0087,0.4169,0.7010,1.1605,-0.7366,-1.9416,0.2354,-0.0637,-0.6484,49.25983323,-122.75417577,1.14999998,
1.6100,0.0087,0.4169,0.7010,-0.7623,-1.7763,-3.5380,0.2354,-0.0637,-0.6484,49.25983323,-122.75417577,1.14999998,
1.6370,0.0700,0.5169,0.7623,-0.7623,-1.7763,-3.5380,0.2354,-0.0637,-0.6484,49.25983323,-122.75417577,1.14999998,
1.6620,0.0645,0.5688,0.7719,-0.7623,-1.7763,-3.5380,0.2354,-0.0637,-0.6484,49.25983323,-122.75417577,1.14999998,
1.6660,0.0645,0.5688,0.7719,-0.7623,-1.7763,-3.5380,0.1735,0.1745,-0.3041,49.25983323,-122.75417577,1.14999998,
1.6830,0.0645,0.5688,0.7719,-0.7142,-1.4282,-1.6534,0.1735,0.1745,-0.3041,49.25983323,-122.75417577,1.14999998,
1.6860,0.0794,0.6338,0.7841,-0.7142,-1.4282,-1.6534,0.1735,0.1745,-0.3041,49.25983323,-122.75417577,1.14999998,
1.6870,-0.0132,0.6432,0.8795,-0.7142,-1.4282,-1.6534,0.1735,0.1745,-0.3041,49.25983323,-122.75417577,1.14999998,
1.7030,0.0419,0.6335,0.9531,-0.7142,-1.4282,-1.6534,0.1735,0.1745,-0.3041,49.25983323,-122.75417577,1.14999998,
1.7330,0.0534,0.6370,1.0765,-0.7142,-1.4282,-1.6534,0.1735,0.1745,-0.3041,49.25983323,-122.75417577,1.14999998,
1.7360,0.0534,0.6370,1.0765,-0.7142,-1.4282,-1.6534,0.0101,0.0859,-0.1641,49.25983323,-122.75417577,1.14999998,
1.7560,0.0534,0.6370,1.0765,0.0484,0.7738,-0.4412,0.0101,0.0859,-0.1641,49.25983323,-122.75417577,1.14999998,
1.7600,0.0140,0.7053,1.1420,0.0484,0.7738,-0.4412,0.0101,0.0859,-0.1641,49.25983323,-122.75417577,1.14999998,
1.7690,-0.0060,0.7725,1.0142,0.0484,0.7738,-0.4412,0.0101,0.0859,-0.1641,49.25983323,-122.75417577,1.14999998,
1.8030,-0.0129,0.7206,0.9631,0.0484,0.7738,-0.4412,0.0101,0.0859,-0.1641,49.25983323,-122.75417577,1.14999998,
1.8050,-0.0129,0.7206,0.9631,0.0484,0.7738,-0.4412,-0.0538,0.2118,0.0400,49.25983323,-122.75417577,1.14999998,
1.8260,0.0876,0.6252,1.2403,0.0484,0.7738,-0.4412,-0.0538,0.2118,0.0400,49.25983323,-122.75417577,1.14999998,
1.8270,0.1060,0.6028,1.3373,0.0484,0.7738,-0.4412,-0.0538,0.2118,0.0400,49.25983323,-122.75417577,1.14999998,
1.8280,0.1060,0.6028,1.3373,-0.0410,1.3859,1.9289,-0.0538,0.2118,0.0400,49.25983323,-122.75417577,1.14999998,
1.8760,0.1060,0.6028,1.3373,-0.0410,1.3859,1.9289,0.1192,0.0576,-0.2968,49.25983323,-122.75417577,1.14999998,
1.8780,0.0570,0.6077,1.0276,-0.0410,1.3859,1.9289,0.1192,0.0576,-0.2968,49.25983134,-122.75419196,1.24000001,
1.8800,0.0558,0.5356,0.8795,-0.0410,1.3859,1.9289,0.1192,0.0576,-0.2968,49.25983134,-122.75419196,1.24000001,
1.8960,0.0558,0.5356,0.8795,0.2237,1.3698,2.6869,0.1192,0.0576,-0.2968,49.25983134,-122.75419196,1.24000001,
1.8990,0.0272,0.3937,1.0563,0.2237,1.3698,2.6869,0.1192,0.0576,-0.2968,49.25983134,-122.75419196,1.24000001,
1.9470,0.0272,0.3937,1.0563,0.2237,1.3698,2.6869,-0.1281,0.0062,-0.1427,49.25983134,-122.75419196,1.24000001,
1.9500,0.0701,0.2850,1.2049,0.2237,1.3698,2.6869,-0.1281,0.0062,-0.1427,49.25983134,-122.75419196,1.24000001,
1.9510,0.0822,0.2591,1.1476,0.2237,1.3698,2.6869,-0.1281,0.0062,-0.1427,49.25983134,-122.75419196,1.24000001,
1.9680,0.0822,0.2591,1.1476,0.2755,-0.6262,1.4334,-0.1281,0.0062,-0.1427,49.25983134,-122.75419196,1.24000001,
1.9700,0.1072,0.3110,0.9381,0.2755,-0.6262,1.4334,-0.1281,0.0062,-0.1427,49.25983134,-122.75419196,1.24000001,
1.9720,0.1110,0.3697,0.6695,0.2755,-0.6262,1.4334,-0.1281,0.0062,-0.1427,49.25983134,-122.75419196,1.24000001,
1.9940,0.0567,0.3931,0.4563,0.2755,-0.6262,1.4334,-0.1281,0.0062,-0.1427,49.25983134,-122.75419196,1.24000001,
2.0210,0.0127,0.3994,0.2994,0.2755,-0.6262,1.4334,-0.1281,0.0062,-0.1427,49.25983134,-122.75419196,1.24000001,
2.0240,0.0127,0.3994,0.2994,0.2755,-0.6262,1.4334,0.9904,-0.0429,-0.1008,49.25983134,-122.75419196,1.24000001,
2.0390,0.0127,0.3994,0.2994,0.7142,-2.8139,1.2312,0.9904,-0.0429,-0.1008,49.25983134,-122.75419196,1.24000001,
2.0420,-0.0195,0.4042,0.3061,0.7142,-2.8139,1.2312,0.9904,-0.0429,-0.1008,49.25983134,-122.75419196,1.24000001,
2.0890,-0.0478,0.4634,0.2552,0.7142,-2.8139,1.2312,0.9904,-0.0429,-0.1008,49.25983134,-122.75419196,1.24000001,
2.0920,-0.1328,0.4904,0.2718,0.7142,-2.8139,1.2312,0.9904,-0.0429,-0.1008,49.25983134,-122.75419196,1.24000001,
2.0950,-0.1328,0.4904,0.2718,0.7142,-2.8139,1.2312,0.6156,-0.4386,-0.3510,49.25983134,-122.75419196,1.24000001,
2.1050,-0.2224,0.5603,0.2653,0.7142,-2.8139,1.2312,0.6156,-0.4386,-0.3510,49.25983134,-122.75419196,1.24000001,
2.1080,-0.2558,0.6392,0.3250,0.7142,-2.8139,1.2312,0.6156,-0.4386,-0.3510,49.25983134,-122.75419196,1.24000001,
2.1100,-0.2558,0.6392,0.3250,-0.2983,-1.9526,-4.5977,0.6156,-0.4386,-0.3510,49.25983134,-122.75419196,1.24000001,
2.1610,-0.2618,0.7213,0.6551,-0.2983,-1.9526,-4.5977,0.6156,-0.4386,-0.3510,49.25983134,-122.75419196,1.24000001,
2.1640,-0.2618,0.7213,0.6551,-0.2983,-1.9526,-4.5977,-0.5693,-1.0135,-0.0924,49.25983134,-122.75419196,1.24000001,
2.1660,-0.0686,0.7208,1.0916,-0.2983,-1.9526,-4.5977,-0.5693,-1.0135,-0.0924,49.25983134,-122.75419196,1.24000001,
2.1720,0.1102,0.7212,1.4610,-0.2983,-1.9526,-4.5977,-0.5693,-1.0135,-0.0924,49.25983134,-122.75419196,1.24000001,
2.1810,0.1102,0.7212,1.4610,-2.6400,-0.2340,-5.0432,-0.5693,-1.0135,-0.0924,49.25983134,-122.75419196,1.24000001,
2.2310,0.1102,0.7212,1.4610,-2.6400,-0.2340,-5.0432,0.3786,0.0720,-0.0776,49.25983134,-122.75419196,1.24000001,
2.2340,0.1373,0.7449,1.4240,-2.6400,-0.2340,-5.0432,0.3786,0.0720,-0.0776,49.25983134,-122.75419196,1.24000001,
2.2360,0.0259,0.7573,1.2066,-2.6400,-0.2340,-5.0432,0.3786,0.0720,-0.0776,49.25983134,-122.75419196,1.24000001,
2.2420,-0.0832,0.7621,0.9804,-2.6400,-0.2340,-5.0432,0.3786,0.0720,-0.0776,49.25983134,-122.75419196,1.24000001,
2.2510,-0.0823,0.7764,0.8003,-2.6400,-0.2340,-5.0432,0.3786,0.0720,-0.0776,49.25983134,-122.75419196,1.24000001,
2.2530,-0.0823,0.7764,0.8003,-1.0357,1.1141,3.2822,0.3786,0.0720,-0.0776,49.25983134,-122.75419196,1.24000001,
2.3010,-0.0261,0.8299,0.8455,-1.0357,1.1141,3.2822,0.3786,0.0720,-0.0776,49.25983134,-122.75419196,1.24000001,
2.3040,0.1662,0.7519,0.9663,-1.0357,1.1141,3.2822,0.3786,0.0720,-0.0776,49.25983134,-122.75419196,1.24000001,
2.3060,0.1662,0.7519,0.9663,-1.0357,1.1141,3.2822,0.2284,-0.1379,0.1458,49.25983134,-122.75419196,1.24000001,
2.3220,0.1662,0.7519,0.9663,-0.9904,1.4734,2.4371,0.2284,-0.1379,0.1458,49.25983134,-122.75419196,1.24000001,
2.3250,0.2568,0.6768,1.1168,-0.9904,1.4734,2.4371,0.2284,-0.1379,0.1458,49.25983134,-122.75419196,1.24000001,
2.3710,0.3026,0.6022,1.2786,-0.9904,1.4734,2.4371,0.2284,-0.1379,0.1458,49.25983134,-122.75419196,1.24000001,
2.3740,0.3258,0.5723,1.2662,-0.9904,1.4734,2.4371,0.2284,-0.1379,0.1458,49.25983134,-122.75419196,1.24000001,
2.3760,0.3258,0.5723,1.2662,-0.9904,1.4734,2.4371,0.1212,0.2487,0.1083,49.25983134,-122.75419196,1.24000001,
2.3940,0.3258,0.5723,1.2662,0.8494,0.9355,2.1936,0.1212,0.2487,0.1083,49.25983134,-122.75419196,1.24000001,
2.3960,0.2884,0.5627,1.0141,0.8494,0.9355,2.1936,0.1212,0.2487,0.1083,49.25983134,-122.75419196,1.24000001,
2.3980,0.2526,0.5550,0.7302,0.8494,0.9355,2.1936,0.1212,0.2487,0.1083,49.25983134,-122.75419196,1.24000001,
2.4390,0.2255,0.5451,0.6512,0.8494,0.9355,2.1936,0.1212,0.2487,0.1083,49.25983134,-122.75419196,1.24000001,
2.4420,0.2335,0.5355,0.6513,0.8494,0.9355,2.1936,0.1212,0.2487,0.1083,49.25983134,-122.75419196,1.24000001,
2.4450,0.2335,0.5355,0.6513,0.8494,0.9355,2.1936,0.2855,0.2284,-0.1000,49.25983134,-122.75419196,1.24000001,
2.4640,0.2335,0.5355,0.6513,2.2441,-0.7450,2.4675,0.2855,0.2284,-0.1000,49.25983134,-122.75419196,1.24000001,
2.4670,0.1975,0.5390,0.4932,2.2441,-0.7450,2.4675,0.2855,0.2284,-0.1000,49.25983134,-122.75419196,1.24000001,
2.4960,0.1385,0.5436,0.4609,2.2441,-0.7450,2.4675,0.2855,0.2284,-0.1000,49.25983134,-122.75419196,1.24000001,
2.5050,0.1361,0.4903,0.4665,2.2441,-0.7450,2.4675,0.2855,0.2284,-0.1000,49.25983134,-122.75419196,1.24000001,
2.5150,0.1361,0.4903,0.4665,2.2441,-0.7450,2.4675,-0.1039,-0.1660,-0.1574,49.25983134,-122.75419196,1.24000001,
2.5380,0.0761,0.4596,0.4956,2.2441,-0.7450,2.4675,-0.1039,-0.1660,-0.1574,49.25983134,-122.75419196,1.24000001,
2.5400,0.0406,0.4474,0.4896,2.2441,-0.7450,2.4675,-0.1039,-0.1660,-0.1574,49.25983134,-122.75419196,1.24000001,
2.5420,0.0406,0.4474,0.4896,1.3586,-0.8761,-2.0951,-0.1039,-0.1660,-0.1574,49.25983134,-122.75419196,1.24000001,
2.5700,0.0451,0.4807,0.4410,1.3586,-0.8761,-2.0951,-0.1039,-0.1660,-0.1574,49.25983134,-122.75419196,1.24000001,
2.5900,0.0451,0.4807,0.4410,1.3586,-0.8761,-2.0951,0.0648,-0.1096,-0.1888,49.25983134,-122.75419196,1.24000001,
2.5930,0.0651,0.5244,0.4046,1.3586,-0.8761,-2.0951,0.0648,-0.1096,-0.1888,49.25983134,-122.75419196,1.24000001,
2.6060,0.0651,0.5244,0.4046,0.3421,-1.5405,-2.9848,0.0648,-0.1096,-0.1888,49.25983134,-122.75419196,1.24000001,
2.6080,-0.0018,0.5702,0.4032,0.3421,-1.5405,-2.9848,0.0648,-0.1096,-0.1888,49.25983134,-122.75419196,1.24000001,
2.6380,-0.0522,0.5833,0.4568,0.3421,-1.5405,-2.9848,0.0648,-0.1096,-0.1888,49.25983134,-122.75419196,1.24000001,
2.6400,-0.0967,0.6265,0.5438,0.3421,-1.5405,-2.9848,0.0648,-0.1096,-0.1888,49.25983134,-122.75419196,1.24000001,
2.6560,-0.0967,0.6265,0.5438,0.3421,-1.5405,-2.9848,-0.4292,0.1960,-0.1945,49.25983134,-122.75419196,1.24000001,
2.6770,-0.1278,0.6736,0.6238,0.3421,-1.5405,-2.9848,-0.4292,0.1960,-0.1945,49.25983134,-122.75419196,1.24000001,
2.6790,-0.1278,0.6736,0.6238,-0.2344,-0.6279,-3.7194,-0.4292,0.1960,-0.1945,49.25983134,-122.75419196,1.24000001,
2.6810,-0.1300,0.7425,0.8597,-0.2344,-0.6279,-3.7194,-0.4292,0.1960,-0.1945,49.25983134,-122.75419196,1.24000001,
2.7050,-0.0537,0.7960,1.0655,-0.2344,-0.6279,-3.7194,-0.4292,0.1960,-0.1945,49.25983134,-122.75419196,1.24000001,
2.7220,0.0118,0.8436,1.0955,-0.2344,-0.6279,-3.7194,-0.4292,0.1960,-0.1945,49.25983134,-122.75419196,1.24000001,
2.7280,0.0118,0.8436,1.0955,-0.2344,-0.6279,-3.7194,-0.0730,0.0654,0.3981,49.25983134,-122.75419196,1.24000001,
2.7430,0.0811,0.8935,0.9294,-0.2344,-0.6279,-3.7194,-0.0730,0.0654,0.3981,49.25983134,-122.75419196,1.24000001,
2.7480,0.0811,0.8935,0.9294,-1.6646,0.4940,-1.2895,-0.0730,0.0654,0.3981,49.25983134,-122.75419196,1.24000001,
2.7700,0.1421,0.8869,0.7591,-1.6646,0.4940,-1.2895,-0.0730,0.0654,0.3981,49.25983134,-122.75419196,1.24000001,
2.7800,0.1323,0.8872,0.8147,-1.6646,0.4940,-1.2895,-0.0730,0.0654,0.3981,49.25983134,-122.75419196,1.24000001,
2.8050,0.1323,0.8872,0.8147,-1.6646,0.4940,-1.2895,0.3640,0.0508,0.2650,49.25983134,-122.75419196,1.24000001,
2.8200,0.1323,0.8872,0.8147,-0.2551,2.2275,2.0568,0.3640,0.0508,0.2650,49.25983134,-122.75419196,1.24000001,
2.8230,0.1220,0.8631,0.9143,-0.2551,2.2275,2.0568,0.3640,0.0508,0.2650,49.25983134,-122.75419196,1.24000001,
2.8240,0.0574,0.8555,0.9550,-0.2551,2.2275,2.0568,0.3640,0.0508,0.2650,49.25983134,-122.75419196,1.24000001,
2.8700,0.0590,0.8808,0.9292,-0.2551,2.2275,2.0568,0.3640,0.0508,0.2650,49.25983134,-122.75419196,1.24000001,
2.8710,0.0590,0.8808,0.9292,-0.2551,2.2275,2.0568,-0.1388,0.4853,0.2185,49.25982866,-122.75420764,1.22000003,
2.8720,0.0713,0.8409,0.9195,-0.2551,2.2275,2.0568,-0.1388,0.4853,0.2185,49.25982866,-122.75420764,1.22000003,
2.8900,0.0713,0.8409,0.9195,0.6779,2.3646,0.8192,-0.1388,0.4853,0.2185,49.25982866,-122.75420764,1.22000003,
2.8920,0.0285,0.7452,1.0460,0.6779,2.3646,0.8192,-0.1388,0.4853,0.2185,49.25982866,-122.75420764,1.22000003,
2.9030,-0.0199,0.6710,1.0086,0.6779,2.3646,0.8192,-0.1388,0.4853,0.2185,49.25982866,-122.75420764,1.22000003,
2.9420,-0.0385,0.6043,0.8139,0.6779,2.3646,0.8192,-0.1388,0.4853,0.2185,49.25982866,-122.75420764,1.22000003,
2.9450,-0.0385,0.6043,0.8139,0.6779,2.3646,0.8192,-0.1277,0.3751,-0.0638,49.25982866,-122.75420764,1.22000003,
2.9630,-0.0385,0.6043,0.8139,0.2348,1.8617,1.6329,-0.1277,0.3751,-0.0638,49.25982866,-122.75420764,1.22000003,
2.9670,-0.0297,0.5389,0.7223,0.2348,1.8617,1.6329,-0.1277,0.3751,-0.0638,49.25982866,-122.75420764,1.22000003,
2.9690,0.0027,0.4495,0.8394,0.2348,1.8617,1.6329,-0.1277,0.3751,-0.0638,49.25982866,-122.75420764,1.22000003,
2.9940,-0.0116,0.3531,0.9710,0.2348,1.8617,1.6329,-0.1277,0.3751,-0.0638,49.25982866,-122.75420764,1.22000003,
3.0120,-0.0296,0.3028,0.9818,0.2348,1.8617,1.6329,-0.1277,0.3751,-0.0638,49.25982866,-122.75420764,1.22000003,
3.0150,-0.0296,0.3028,0.9818,0.2348,1.8617,1.6329,-0.2896,0.1440,0.0816,49.25982866,-122.75420764,1.22000003,
3.0330,-0.0296,0.3028,0.9818,-0.4259,-0.6905,0.1258,-0.2896,0.1440,0.0816,49.25982866,-122.75420764,1.22000003,
3.0360,-0.0048,0.3333,0.8101,-0.4259,-0.6905,0.1258,-0.2896,0.1440,0.0816,49.25982866,-122.75420764,1.22000003,
3.0850,0.0299,0.3760,0.5503,-0.4259,-0.6905,0.1258,-0.2896,0.1440,0.0816,49.25982866,-122.75420764,1.22000003,
3.0880,0.0299,0.3760,0.5503,-0.4259,-0.6905,0.1258,0.5850,0.1468,0.3350,49.25982866,-122.75420764,1.22000003,
3.0900,0.0198,0.4091,0.3914,-0.4259,-0.6905,0.1258,0.5850,0.1468,0.3350,49.25982866,-122.75420764,1.22000003,
3.1060,0.0198,0.4091,0.3914,-0.3465,-2.9643,0.8894,0.5850,0.1468,0.3350,49.25982866,-122.75420764,1.22000003,
3.1090,-0.0040,0.4217,0.3745,-0.3465,-2.9643,0.8894,0.5850,0.1468,0.3350,49.25982866,-122.75420764,1.22000003,
3.1110,-0.0459,0.4318,0.4664,-0.3465,-2.9643,0.8894,0.5850,0.1468,0.3350,49.25982866,-122.75420764,1.22000003,
3.1550,-0.0919,0.4908,0.5189,-0.3465,-2.9643,0.8894,0.5850,0.1468,0.3350,49.25982866,-122.75420764,1.22000003,
3.1590,-0.0919,0.4908,0.5189,-0.3465,-2.9643,0.8894,0.4106,-0.1505,0.0851,49.25982866,-122.75420764,1.22000003,
3.1610,-0.1314,0.5823,0.4213,-0.3465,-2.9643,0.8894,0.4106,-0.1505,0.0851,49.25982866,-122.75420764,1.22000003,
3.1710,-0.0993,0.6449,0.3920,-0.3465,-2.9643,0.8894,0.4106,-0.1505,0.0851,49.25982866,-122.75420764,1.22000003,
3.1750,-0.0993,0.6449,0.3920,-0.5195,-2.2988,-3.3245,0.4106,-0.1505,0.0851,49.25982866,-122.75420764,1.22000003,
3.2260,-0.0293,0.6641,0.7311,-0.5195,-2.2988,-3.3245,0.4106,-0.1505,0.0851,49.25982866,-122.75420764,1.22000003,
3.2300,-0.0293,0.6641,0.7311,-0.5195,-2.2988,-3.3245,0.2206,-0.8199,-0.0165,49.25982866,-122.75420764,1.22000003,
3.2320,0.0397,0.6782,0.9672,-0.5195,-2.2988,-3.3245,0.2206,-0.8199,-0.0165,49.25982866,-122.75420764,1.22000003,
3.2380,0.0215,0.7067,0.9264,-0.5195,-2.2988,-3.3245,0.2206,-0.8199,-0.0165,49.25982866,-122.75420764,1.22000003,
3.2460,0.0215,0.7067,0.9264,-1.7077,-0.7342,-2.6520,0.2206,-0.8199,-0.0165,49.25982866,-122.75420764,1.22000003,
3.2490,0.0086,0.7892,0.7444,-1.7077,-0.7342,-2.6520,0.2206,-0.8199,-0.0165,49.25982866,-122.75420764,1.22000003,
3.2970,0.1469,0.8879,0.7396,-1.7077,-0.7342,-2.6520,0.2206,-0.8199,-0.0165,49.25982866,-122.75420764,1.22000003,
3.3010,0.1469,0.8879,0.7396,-1.7077,-0.7342,-2.6520,0.0232,-0.2524,-0.0926,49.25982866,-122.75420764,1.22000003,
3.3040,0.2228,0.8745,0.9680,-1.7077,-0.7342,-2.6520,0.0232,-0.2524,-0.0926,49.25982866,-122.75420764,1.22000003,
3.3180,0.2228,0.8745,0.9680,-0.6835,0.4816,1.3048,0.0232,-0.2524,-0.0926,49.25982866,-122.75420764,1.22000003,
3.3210,0.2682,0.7468,1.0409,-0.6835,0.4816,1.3048,0.0232,-0.2524,-0.0926,49.25982866,-122.75420764,1.22000003,
3.3690,0.3210,0.7082,1.0169,-0.6835,0.4816,1.3048,0.0232,-0.2524,-0.0926,49.25982866,-122.75420764,1.22000003,
3.3740,0.3210,0.7082,1.0169,-0.6835,0.4816,1.3048,-0.3435,-0.5425,-0.5013,49.25982866,-122.75420764,1.22000003,
3.3760,0.3755,0.6622,0.8824,-0.6835,0.4816,1.3048,-0.3435,-0.5425,-0.5013,49.25982866,-122.75420764,1.22000003,
3.3770,0.3421,0.5835,0.9418,-0.6835,0.4816,1.3048,-0.3435,-0.5425,-0.5013,49.25982866,-122.75420764,1.22000003,
3.3890,0.2387,0.5258,0.9506,-0.6835,0.4816,1.3048,-0.3435,-0.5425,-0.5013,49.25982866,-122.75420764,1.22000003,
3.3920,0.2387,0.5258,0.9506,1.4441,1.7972,1.5602,-0.3435,-0.5425,-0.5013,49.25982866,-122.75420764,1.22000003,
3.4400,0.1220,0.4742,0.7850,1.4441,1.7972,1.5602,-0.3435,-0.5425,-0.5013,49.25982866,-122.75420764,1.22000003,
3.4440,0.1137,0.4653,0.7436,1.4441,1.7972,1.5602,-0.3435,-0.5425,-0.5013,49.25982866,-122.75420764,1.22000003,
3.4460,0.1137,0.4653,0.7436,1.4441,1.7972,1.5602,-1.1086,-0.1500,-0.2647,49.25982866,-122.75420764,1.22000003,
3.4590,0.1137,0.4653,0.7436,2.1569,0.3978,1.0554,-1.1086,-0.1500,-0.2647,49.25982866,-122.75420764,1.22000003,
3.4620,0.2173,0.4486,0.8464,2.1569,0.3978,1.0554,-1.1086,-0.1500,-0.2647,49.25982866,-122.75420764,1.22000003,
3.4940,0.2287,0.4192,0.9184,2.1569,0.3978,1.0554,-1.1086,-0.1500,-0.2647,49.25982866,-122.75420764,1.22000003,
3.4970,0.1627,0.4000,0.8658,2.1569,0.3978,1.0554,-1.1086,-0.1500,-0.2647,49.25982866,-122.75420764,1.22000003,
3.5110,0.1627,0.4000,0.8658,2.1569,0.3978,1.0554,-1.3556,-0.3317,0.0420,49.25982866,-122.75420764,1.22000003,
3.5290,0.1627,0.4000,0.8658,0.4549,-0.3751,-0.5732,-1.3556,-0.3317,0.0420,49.25982866,-122.75420764,1.22000003,
3.5320,0.0831,0.4166,0.6889,0.4549,-0.3751,-0.5732,-1.3556,-0.3317,0.0420,49.25982866,-122.75420764,1.22000003,
3.5340,0.0125,0.4301,0.4747,0.4549,-0.3751,-0.5732,-1.3556,-0.3317,0.0420,49.25982866,-122.75420764,1.22000003,
3.5720,-0.0299,0.4490,0.3923,0.4549,-0.3751,-0.5732,-1.3556,-0.3317,0.0420,49.25982866,-122.75420764,1.22000003,
3.5760,-0.0257,0.4836,0.4378,0.4549,-0.3751,-0.5732,-1.3556,-0.3317,0.0420,49.25982866,-122.75420764,1.22000003,
3.5810,-0.0257,0.4836,0.4378,0.4549,-0.3751,-0.5732,-0.7346,-0.4659,-0.0897,49.25982866,-122.75420764,1.22000003,
3.6030,-0.0257,0.4836,0.4378,-0.3941,-0.3915,-1.6654,-0.7346,-0.4659,-0.0897,49.25982866,-122.75420764,1.22000003,
3.6060,-0.0365,0.5191,0.4362,-0.3941,-0.3915,-1.6654,-0.7346,-0.4659,-0.0897,49.25982866,-122.75420764,1.22000003,
3.6390,-0.0843,0.5354,0.4556,-0.3941,-0.3915,-1.6654,-0.7346,-0.4659,-0.0897,49.25982866,-122.75420764,1.22000003,
3.6420,-0.1875,0.5133,0.5136,-0.3941,-0.3915,-1.6654,-0.7346,-0.4659,-0.0897,49.25982866,-122.75420764,1.22000003,
3.6520,-0.1875,0.5133,0.5136,-0.3941,-0.3915,-1.6654,-0.5898,-0.3707,-0.3340,49.25982866,-122.75420764,1.22000003,
3.6730,-0.1875,0.5133,0.5136,-1.8131,0.6794,-4.5323,-0.5898,-0.3707,-0.3340,49.25982866,-122.75420764,1.22000003,
3.6760,-0.2770,0.5105,0.5883,-1.8131,0.6794,-4.5323,-0.5898,-0.3707,-0.3340,49.25982866,-122.75420764,1.22000003,
3.6780,-0.3071,0.5333,0.6904,-1.8131,0.6794,-4.5323,-0.5898,-0.3707,-0.3340,49.25982866,-122.75420764,1.22000003,
3.7060,-0.2995,0.5459,0.8190,-1.8131,0.6794,-4.5323,-0.5898,-0.3707,-0.3340,49.25982866,-122.75420764,1.22000003,
3.7230,-0.2025,0.5387,1.0522,-1.8131,0.6794,-4.5323,-0.5898,-0.3707,-0.3340,49.25982866,-122.75420764,1.22000003,
3.7260,-0.2025,0.5387,1.0522,-1.8131,0.6794,-4.5323,-0.6918,-0.3242,0.1054,49.25982866,-122.75420764,1.22000003,
3.7440,-0.2025,0.5387,1.0522,-4.0240,1.4167,-3.1122,-0.6918,-0.3242,0.1054,49.25982866,-122.75420764,1.22000003,
3.7470,-0.0555,0.4699,1.5365,-4.0240,1.4167,-3.1122,-0.6918,-0.3242,0.1054,49.25982866,-122.75420764,1.22000003,
3.7710,-0.0101,0.3383,1.9343,-4.0240,1.4167,-3.1122,-0.6918,-0.3242,0.1054,49.25982866,-122.75420764,1.22000003,
3.7800,0.1684,0.3221,1.9564,-4.0240,1.4167,-3.1122,-0.6918,-0.3242,0.1054,49.25982866,-122.75420764,1.22000003,
3.7970,0.1684,0.3221,1.9564,-4.0240,1.4167,-3.1122,-0.0091,0.1915,0.8145,49.25982866,-122.75420764,1.22000003,
3.8190,0.1684,0.3221,1.9564,-3.0925,1.0419,3.3933,-0.0091,0.1915,0.8145,49.25982866,-122.75420764,1.22000003,
3.8210,0.2906,0.5276,1.5999,-3.0925,1.0419,3.3933,-0.0091,0.1915,0.8145,49.25982866,-122.75420764,1.22000003,
3.8230,0.2767,0.6067,1.2116,-3.0925,1.0419,3.3933,-0.0091,0.1915,0.8145,49.25982866,-122.75420764,1.22000003,
3.8380,0.1870,0.5735,1.1343,-3.0925,1.0419,3.3933,-0.0091,0.1915,0.8145,49.25982866,-122.75420764,1.22000003,
3.8650,0.1179,0.4638,1.2447,-3.0925,1.0419,3.3933,-0.0091,0.1915,0.8145,49.25982866,-122.75420764,1.22000003,
3.8680,0.1179,0.4638,1.2447,-3.0925,1.0419,3.3933,0.3580,0.8457,0.8335,49.25982613,-122.75422645,1.34000003,
3.8850,0.1168,0.4121,1.3028,-3.0925,1.0419,3.3933,0.3580,0.8457,0.8335,49.25982613,-122.75422645,1.34000003,
3.8880,0.1168,0.4121,1.3028,0.6214,0.5608,7.1513,0.3580,0.8457,0.8335,49.25982613,-122.75422645,1.34000003,
3.9060,0.2368,0.4292,1.3116,0.6214,0.5608,7.1513,0.3580,0.8457,0.8335,49.25982613,-122.75422645,1.34000003,
3.9380,0.2368,0.4292,1.3116,0.6214,0.5608,7.1513,0.3343,-0.2491,0.6377,49.25982613,-122.75422645,1.34000003,
3.9420,0.3851,0.4032,1.3362,0.6214,0.5608,7.1513,0.3343,-0.2491,0.6377,49.25982613,-122.75422645,1.34000003,
3.9570,0.3851,0.4032,1.3362,-0.1546,0.6741,3.1846,0.3343,-0.2491,0.6377,49.25982613,-122.75422645,1.34000003,
3.9610,0.4337,0.3034,1.3196,-0.1546,0.6741,3.1846,0.3343,-0.2491,0.6377,49.25982613,-122.75422645,1.34000003,
3.9630,0.3785,0.2244,1.2531,-0.1546,0.6741,3.1846,0.3343,-0.2491,0.6377,49.25982613,-122.75422645,1.34000003,
3.9940,0.2881,0.1628,1.1047,-0.1546,0.6741,3.1846,0.3343,-0.2491,0.6377,49.25982613,-122.75422645,1.34000003,
4.0060,0.2173,0.1496,0.8163,-0.1546,0.6741,3.1846,0.3343,-0.2491,0.6377,49.25982613,-122.75422645,1.34000003,
4.0090,0.2173,0.1496,0.8163,-0.1546,0.6741,3.1846,0.2166,0.9026,0.6196,49.25982613,-122.75422645,1.34000003,
4.0260,0.2173,0.1496,0.8163,2.4614,-1.0761,3.8548,0.2166,0.9026,0.6196,49.25982613,-122.75422645,1.34000003,
4.0290,0.2078,0.1918,0.4886,2.4614,-1.0761,3.8548,0.2166,0.9026,0.6196,49.25982613,-122.75422645,1.34000003,
4.0390,0.2044,0.2469,0.2500,2.4614,-1.0761,3.8548,0.2166,0.9026,0.6196,49.25982613,-122.75422645,1.34000003,
4.0790,0.1699,0.2774,0.1370,2.4614,-1.0761,3.8548,0.2166,0.9026,0.6196,49.25982613,-122.75422645,1.34000003,
4.0820,0.1699,0.2774,0.1370,2.4614,-1.0761,3.8548,1.1939,0.1925,0.5254,49.25982613,-122.75422645,1.34000003,
4.1000,0.1699,0.2774,0.1370,0.8349,-3.1464,-1.3820,1.1939,0.1925,0.5254,49.25982613,-122.75422645,1.34000003,
4.1040,0.1242,0.2823,0.1158,0.8349,-3.1464,-1.3820,1.1939,0.1925,0.5254,49.25982613,-122.75422645,1.34000003,
4.1060,0.1201,0.3046,0.1430,0.8349,-3.1464,-1.3820,1.1939,0.1925,0.5254,49.25982613,-122.75422645,1.34000003,
4.1500,0.1201,0.3046,0.1430,0.8349,-3.1464,-1.3820,0.7241,-0.6201,0.1852,49.25982613,-122.75422645,1.34000003,
4.1530,0.1291,0.3329,0.1573,0.8349,-3.1464,-1.3820,0.7241,-0.6201,0.1852,49.25982613,-122.75422645,1.34000003,
4.1550,0.1294,0.3647,0.2287,0.8349,-3.1464,-1.3820,0.7241,-0.6201,0.1852,49.25982613,-122.75422645,1.34000003,
4.1700,0.1294,0.3647,0.2287,-0.5736,-2.3787,-6.7081,0.7241,-0.6201,0.1852,49.25982613,-122.75422645,1.34000003,
4.1740,0.1556,0.4185,0.3783,-0.5736,-2.3787,-6.7081,0.7241,-0.6201,0.1852,49.25982613,-122.75422645,1.34000003,
4.2220,0.1556,0.4185,0.3783,-0.5736,-2.3787,-6.7081,-0.1658,-1.6091,-0.0585,49.25982613,-122.75422645,1.34000003,
4.2260,0.1881,0.4532,0.4352,-0.5736,-2.3787,-6.7081,-0.1658,-1.6091,-0.0585,49.25982613,-122.75422645,1.34000003,
4.2280,0.3201,0.5173,0.5651,-0.5736,-2.3787,-6.7081,-0.1658,-1.6091,-0.0585,49.25982613,-122.75422645,1.34000003,
4.2400,0.4521,0.5592,0.8398,-0.5736,-2.3787,-6.7081,-0.1658,-1.6091,-0.0585,49.25982613,-122.75422645,1.34000003,
4.2430,0.4501,0.5487,1.0345,-0.5736,-2.3787,-6.7081,-0.1658,-1.6091,-0.0585,49.25982613,-122.75422645,1.34000003,
4.2450,0.4501,0.5487,1.0345,-1.4403,-1.0621,-5.2337,-0.1658,-1.6091,-0.0585,49.25982613,-122.75422645,1.34000003,
4.2900,0.4048,0.5555,1.1581,-1.4403,-1.0621,-5.2337,-0.1658,-1.6091,-0.0585,49.25982613,-122.75422645,1.34000003,
4.2930,0.4048,0.5555,1.1581,-1.4403,-1.0621,-5.2337,-1.4295,-0.8449,-0.3908,49.25982613,-122.75422645,1.34000003,
4.2950,0.4028,0.6040,1.2453,-1.4403,-1.0621,-5.2337,-1.4295,-0.8449,-0.3908,49.25982613,-122.75422645,1.34000003,
4.3080,0.4799,0.6526,1.2819,-1.4403,-1.0621,-5.2337,-1.4295,-0.8449,-0.3908,49.25982613,-122.75422645,1.34000003,
4.3110,0.4799,0.6526,1.2819,0.5209,1.0534,-0.7477,-1.4295,-0.8449,-0.3908,49.25982613,-122.75422645,1.34000003,
4.3630,0.5855,0.7097,1.2706,0.5209,1.0534,-0.7477,-1.4295,-0.8449,-0.3908,49.25982613,-122.75422645,1.34000003,
4.3670,0.5855,0.7097,1.2706,0.5209,1.0534,-0.7477,-1.1525,-0.7726,-0.8091,49.25982613,-122.75422645,1.34000003,
4.3690,0.6004,0.6694,1.2679,0.5209,1.0534,-0.7477,-1.1525,-0.7726,-0.8091,49.25982613,-122.75422645,1.34000003,
4.3710,0.4849,0.5633,1.3649,0.5209,1.0534,-0.7477,-1.1525,-0.7726,-0.8091,49.25982613,-122.75422645,1.34000003,
4.3820,0.4849,0.5633,1.3649,1.1532,2.3294,3.6513,-1.1525,-0.7726,-0.8091,49.25982613,-122.75422645,1.34000003,
4.3840,0.3651,0.4273,1.4785,1.1532,2.3294,3.6513,-1.1525,-0.7726,-0.8091,49.25982613,-122.75422645,1.34000003,
4.4330,0.3651,0.4273,1.4785,1.1532,2.3294,3.6513,-0.3858,-0.2804,-0.6354,49.25982613,-122.75422645,1.34000003,
4.4370,0.2757,0.2708,1.4955,1.1532,2.3294,3.6513,-0.3858,-0.2804,-0.6354,49.25982613,-122.75422645,1.34000003,
4.4390,0.2957,0.1992,1.3357,1.1532,2.3294,3.6513,-0.3858,-0.2804,-0.6354,49.25982613,-122.75422645,1.34000003,
4.4530,0.2957,0.1992,1.3357,1.5487,1.8129,4.7932,-0.3858,-0.2804,-0.6354,49.25982613,-122.75422645,1.34000003,
4.4550,0.4048,0.2408,1.1266,1.5487,1.8129,4.7932,-0.3858,-0.2804,-0.6354,49.25982613,-122.75422645,1.34000003,
4.4930,0.4270,0.2697,0.9607,1.5487,1.8129,4.7932,-0.3858,-0.2804,-0.6354,49.25982613,-122.75422645,1.34000003,
4.4950,0.3664,0.2740,0.8322,1.5487,1.8129,4.7932,-0.3858,-0.2804,-0.6354,49.25982613,-122.75422645,1.34000003,
4.5070,0.3664,0.2740,0.8322,1.5487,1.8129,4.7932,0.2093,-0.0137,-0.1057,49.25982613,-122.75422645,1.34000003,
4.5100,0.2693,0.2706,0.7086,1.5487,1.8129,4.7932,0.2093,-0.0137,-0.1057,49.25982613,-122.75422645,1.34000003,
4.5260,0.2693,0.2706,0.7086,0.1440,-1.5939,3.9334,0.2093,-0.0137,-0.1057,49.25982613,-122.75422645,1.34000003,
4.5290,0.1587,0.2580,0.5576,0.1440,-1.5939,3.9334,0.2093,-0.0137,-0.1057,49.25982613,-122.75422645,1.34000003,
4.5700,0.0789,0.2649,0.4070,0.1440,-1.5939,3.9334,0.2093,-0.0137,-0.1057,49.25982613,-122.75422645,1.34000003,
4.5720,0.0358,0.2901,0.3021,0.1440,-1.5939,3.9334,0.2093,-0.0137,-0.1057,49.25982613,-122.75422645,1.34000003,
4.5740,0.0358,0.2901,0.3021,0.1440,-1.5939,3.9334,0.2660,0.3706,-0.1904,49.25982613,-122.75422645,1.34000003,
4.5940,-0.0088,0.3055,0.2654,0.1440,-1.5939,3.9334,0.2660,0.3706,-0.1904,49.25982613,-122.75422645,1.34000003,
4.5960,-0.0088,0.3055,0.2654,-0.1560,-1.4769,-1.3438,0.2660,0.3706,-0.1904,49.25982613,-122.75422645,1.34000003,
4.6370,-0.0540,0.2934,0.3391,-0.1560,-1.4769,-1.3438,0.2660,0.3706,-0.1904,49.25982613,-122.75422645,1.34000003,
4.6390,-0.0816,0.2943,0.4673,-0.1560,-1.4769,-1.3438,0.2660,0.3706,-0.1904,49.25982613,-122.75422645,1.34000003,
4.6450,-0.0816,0.2943,0.4673,-0.1560,-1.4769,-1.3438,-0.1003,0.2169,-0.1282,49.25982613,-122.75422645,1.34000003,
4.6650,-0.0980,0.3078,0.5819,-0.1560,-1.4769,-1.3438,-0.1003,0.2169,-0.1282,49.25982613,-122.75422645,1.34000003,
4.6670,-0.0980,0.3078,0.5819,-2.5586,-1.1922,-5.3513,-0.1003,0.2169,-0.1282,49.25982613,-122.75422645,1.34000003,
4.6680,-0.0691,0.3606,0.6487,-2.5586,-1.1922,-5.3513,-0.1003,0.2169,-0.1282,49.25982613,-122.75422645,1.34000003,
4.7040,-0.0415,0.4119,0.7114,-2.5586,-1.1922,-5.3513,-0.1003,0.2169,-0.1282,49.25982613,-122.75422645,1.34000003,
4.7160,0.0138,0.4213,0.8853,-2.5586,-1.1922,-5.3513,-0.1003,0.2169,-0.1282,49.25982613,-122.75422645,1.34000003,
4.7180,0.0138,0.4213,0.8853,-2.5586,-1.1922,-5.3513,-0.2178,0.0805,0.3984,49.25982613,-122.75422645,1.34000003,
4.7380,0.1697,0.4092,1.1648,-2.5586,-1.1922,-5.3513,-0.2178,0.0805,0.3984,49.25982613,-122.75422645,1.34000003,
4.7420,0.1697,0.4092,1.1648,-3.6571,-0.5834,-3.2668,-0.2178,0.0805,0.3984,49.25982613,-122.75422645,1.34000003,
4.7720,0.3682,0.3856,1.4819,-3.6571,-0.5834,-3.2668,-0.2178,0.0805,0.3984,49.25982613,-122.75422645,1.34000003,
4.7740,0.5108,0.3972,1.7492,-3.6571,-0.5834,-3.2668,-0.2178,0.0805,0.3984,49.25982613,-122.75422645,1.34000003,
4.7880,0.5108,0.3972,1.7492,-3.6571,-0.5834,-3.2668,0.0015,0.2913,0.8511,49.25982613,-122.75422645,1.34000003,
4.8080,0.5478,0.5156,1.5430,-3.6571,-0.5834,-3.2668,0.0015,0.2913,0.8511,49.25982613,-122.75422645,1.34000003,
4.8090,0.5478,0.5156,1.5430,-1.8360,0.3832,1.0919,0.0015,0.2913,0.8511,49.25982613,-122.75422645,1.34000003,
4.8110,0.5240,0.6126,1.1448,-1.8360,0.3832,1.0919,0.0015,0.2913,0.8511,49.25982613,-122.75422645,1.34000003,
4.8390,0.5019,0.5802,1.1360,-1.8360,0.3832,1.0919,0.0015,0.2913,0.8511,49.25982613,-122.75422645,1.34000003,
4.8580,0.5019,0.5802,1.1360,-1.8360,0.3832,1.0919,0.1404,0.9504,0.5578,49.25982613,-122.75422645,1.34000003,
4.8600,0.4618,0.4789,1.3608,-1.8360,0.3832,1.0919,0.1404,0.9504,0.5578,49.25982266,-122.75424433,1.35000002,
4.8800,0.3922,0.4554,1.2288,-1.8360,0.3832,1.0919,0.1404,0.9504,0.5578,49.25982266,-122.75424433,1.35000002,
4.8820,0.3922,0.4554,1.2288,2.6761,1.0810,5.7544,0.1404,0.9504,0.5578,49.25982266,-122.75424433,1.35000002,
4.9030,0.3250,0.4228,1.0433,2.6761,1.0810,5.7544,0.1404,0.9504,0.5578,49.25982266,-122.75424433,1.35000002,
4.9290,0.4329,0.3641,1.1669,2.6761,1.0810,5.7544,0.1404,0.9504,0.5578,49.25982266,-122.75424433,1.35000002,
4.9320,0.4329,0.3641,1.1669,2.6761,1.0810,5.7544,0.1193,0.0625,0.2758,49.25982266,-122.75424433,1.35000002,
4.9510,0.5213,0.2765,1.3927,2.6761,1.0810,5.7544,0.1193,0.0625,0.2758,49.25982266,-122.75424433,1.35000002,
4.9530,0.4522,0.1923,1.3324,2.6761,1.0810,5.7544,0.1193,0.0625,0.2758,49.25982266,-122.75424433,1.35000002,
4.9550,0.4522,0.1923,1.3324,1.8420,1.1975,3.0355,0.1193,0.0625,0.2758,49.25982266,-122.75424433,1.35000002,
4.9720,0.3528,0.1727,1.1234,1.8420,1.1975,3.0355,0.1193,0.0625,0.2758,49.25982266,-122.75424433,1.35000002,
4.9930,0.2710,0.1767,0.8675,1.8420,1.1975,3.0355,0.1193,0.0625,0.2758,49.25982266,-122.75424433,1.35000002,
5.0010,0.2710,0.1767,0.8675,1.8420,1.1975,3.0355,0.3617,0.7425,0.4353,49.25982266,-122.75424433,1.35000002,
5.0210,0.2345,0.2097,0.5994,1.8420,1.1975,3.0355,0.3617,0.7425,0.4353,49.25982266,-122.75424433,1.35000002,
5.0240,0.2345,0.2097,0.5994,2.2940,-1.1191,3.4410,0.3617,0.7425,0.4353,49.25982266,-122.75424433,1.35000002,
5.0390,0.2127,0.2470,0.3667,2.2940,-1.1191,3.4410,0.3617,0.7425,0.4353,49.25982266,-122.75424433,1.35000002,
5.0720,0.2127,0.2470,0.3667,2.2940,-1.1191,3.4410,1.2066,0.4284,0.3999,49.25982266,-122.75424433,1.35000002,
5.0740,0.1884,0.2930,0.2055,2.2940,-1.1191,3.4410,1.2066,0.4284,0.3999,49.25982266,-122.75424433,1.35000002,
5.0920,0.1557,0.3391,0.1425,2.2940,-1.1191,3.4410,1.2066,0.4284,0.3999,49.25982266,-122.75424433,1.35000002,
5.0940,0.1535,0.3723,0.1573,2.2940,-1.1191,3.4410,1.2066,0.4284,0.3999,49.25982266,-122.75424433,1.35000002,
5.0960,0.1535,0.3723,0.1573,0.6495,-2.7357,-0.7129,1.2066,0.4284,0.3999,49.25982266,-122.75424433,1.35000002,
5.1430,0.1574,0.4030,0.2549,0.6495,-2.7357,-0.7129,1.2066,0.4284,0.3999,49.25982266,-122.75424433,1.35000002,
5.1450,0.1574,0.4030,0.2549,0.6495,-2.7357,-0.7129,0.6909,-0.2967,-0.0889,49.25982266,-122.75424433,1.35000002,
5.1470,0.1555,0.4208,0.3158,0.6495,-2.7357,-0.7129,0.6909,-0.2967,-0.0889,49.25982266,-122.75424433,1.35000002,
5.1630,0.1555,0.4208,0.3158,-0.5657,-1.7787,-6.3328,0.6909,-0.2967,-0.0889,49.25982266,-122.75424433,1.35000002,
5.1660,0.1628,0.4413,0.4201,-0.5657,-1.7787,-6.3328,0.6909,-0.2967,-0.0889,49.25982266,-122.75424433,1.35000002,
5.2140,0.1781,0.4444,0.4870,-0.5657,-1.7787,-6.3328,0.6909,-0.2967,-0.0889,49.25982266,-122.75424433,1.35000002,
5.2170,0.1781,0.4444,0.4870,-0.5657,-1.7787,-6.3328,0.0655,-1.0922,-0.3731,49.25982266,-122.75424433,1.35000002,
5.2190,0.2147,0.4467,0.5321,-0.5657,-1.7787,-6.3328,0.0655,-1.0922,-0.3731,49.25982266,-122.75424433,1.35000002,
5.2340,0.2147,0.4467,0.5321,-1.2649,-0.7040,-4.5307,0.0655,-1.0922,-0.3731,49.25982266,-122.75424433,1.35000002,
5.2360,0.3462,0.4723,0.6762,-1.2649,-0.7040,-4.5307,0.0655,-1.0922,-0.3731,49.25982266,-122.75424433,1.35000002,
5.2370,0.4761,0.5243,0.9129,-1.2649,-0.7040,-4.5307,0.0655,-1.0922,-0.3731,49.25982266,-122.75424433,1.35000002,
5.2850,0.4596,0.5399,1.0689,-1.2649,-0.7040,-4.5307,0.0655,-1.0922,-0.3731,49.25982266,-122.75424433,1.35000002,
5.2880,0.4596,0.5399,1.0689,-1.2649,-0.7040,-4.5307,-1.2126,-0.9146,-0.5293,49.25982266,-122.75424433,1.35000002,
5.2900,0.3893,0.5257,1.2082,-1.2649,-0.7040,-4.5307,-1.2126,-0.9146,-0.5293,49.25982266,-122.75424433,1.35000002,
5.3060,0.4130,0.5117,1.3203,-1.2649,-0.7040,-4.5307,-1.2126,-0.9146,-0.5293,49.25982266,-122.75424433,1.35000002,
5.3080,0.4130,0.5117,1.3203,0.0456,0.4460,-1.5644,-1.2126,-0.9146,-0.5293,49.25982266,-122.75424433,1.35000002,
5.3560,0.4982,0.5364,1.4090,0.0456,0.4460,-1.5644,-1.2126,-0.9146,-0.5293,49.25982266,-122.75424433,1.35000002,
5.3580,0.4982,0.5364,1.4090,0.0456,0.4460,-1.5644,-1.0306,-0.6490,-0.5326,49.25982266,-122.75424433,1.35000002,
5.3600,0.5263,0.5288,1.4404,0.0456,0.4460,-1.5644,-1.0306,-0.6490,-0.5326,49.25982266,-122.75424433,1.35000002,
5.3700,0.4385,0.5171,1.4065,0.0456,0.4460,-1.5644,-1.0306,-0.6490,-0.5326,49.25982266,-122.75424433,1.35000002,
5.3760,0.3462,0.4821,1.2607,0.0456,0.4460,-1.5644,-1.0306,-0.6490,-0.5326,49.25982266,-122.75424433,1.35000002,
5.3790,0.3462,0.4821,1.2607,1.0098,1.2853,3.5978,-1.0306,-0.6490,-0.5326,49.25982266,-122.75424433,1.35000002,
5.4270,0.3462,0.4821,1.2607,1.0098,1.2853,3.5978,-0.2197,-0.3464,-0.3790,49.25982266,-122.75424433,1.35000002,
5.4290,0.3090,0.3888,1.2084,1.0098,1.2853,3.5978,-0.2197,-0.3464,-0.3790,49.25982266,-122.75424433,1.35000002,
5.4310,0.4174,0.3392,1.2367,1.0098,1.2853,3.5978,-0.2197,-0.3464,-0.3790,49.25982266,-122.75424433,1.35000002,
5.4390,0.5003,0.3171,1.2039,1.0098,1.2853,3.5978,-0.2197,-0.3464,-0.3790,49.25982266,-122.75424433,1.35000002,
5.4480,0.5003,0.3171,1.2039,1.0183,1.1035,5.0754,-0.2197,-0.3464,-0.3790,49.25982266,-122.75424433,1.35000002,
5.4930,0.4747,0.2976,1.0544,1.0183,1.1035,5.0754,-0.2197,-0.3464,-0.3790,49.25982266,-122.75424433,1.35000002,
5.4950,0.3897,0.2879,0.8947,1.0183,1.1035,5.0754,-0.2197,-0.3464,-0.3790,49.25982266,-122.75424433,1.35000002,
5.4990,0.3897,0.2879,0.8947,1.0183,1.1035,5.0754,0.2116,0.1458,-0.1998,49.25982266,-122.75424433,1.35000002,
5.5030,0.2673,0.2834,0.6758,1.0183,1.1035,5.0754,0.2116,0.1458,-0.1998,49.25982266,-122.75424433,1.35000002,
5.5190,0.2673,0.2834,0.6758,0.9979,-0.8202,3.2878,0.2116,0.1458,-0.1998,49.25982266,-122.75424433,1.35000002,
5.5210,0.1664,0.2922,0.4473,0.9979,-0.8202,3.2878,0.2116,0.1458,-0.1998,49.25982266,-122.75424433,1.35000002,
5.5690,0.1664,0.2922,0.4473,0.9979,-0.8202,3.2878,0.3699,0.4241,-0.2433,49.25982266,-122.75424433,1.35000002,
5.5720,0.1044,0.3046,0.2593,0.9979,-0.8202,3.2878,0.3699,0.4241,-0.2433,49.25982266,-122.75424433,1.35000002,
5.5740,0.0474,0.3090,0.1443,0.9979,-0.8202,3.2878,0.3699,0.4241,-0.2433,49.25982266,-122.75424433,1.35000002,
5.5900,0.0474,0.3090,0.1443,0.0750,-1.4776,-1.3804,0.3699,0.4241,-0.2433,49.25982266,-122.75424433,1.35000002,
5.5930,-0.0004,0.3030,0.1436,0.0750,-1.4776,-1.3804,0.3699,0.4241,-0.2433,49.25982266,-122.75424433,1.35000002,
5.6380,-0.0236,0.2980,0.2696,0.0750,-1.4776,-1.3804,0.3699,0.4241,-0.2433,49.25982266,-122.75424433,1.35000002,
5.6410,-0.0028,0.3205,0.4381,0.0750,-1.4776,-1.3804,0.3699,0.4241,-0.2433,49.25982266,-122.75424433,1.35000002,
5.6430,-0.0028,0.3205,0.4381,0.0750,-1.4776,-1.3804,-0.2537,-0.0799,-0.1255,49.25982266,-122.75424433,1.35000002,
5.6620,0.0435,0.3542,0.6369,0.0750,-1.4776,-1.3804,-0.2537,-0.0799,-0.1255,49.25982266,-122.75424433,1.35000002,
5.6640,0.0435,0.3542,0.6369,-2.5046,-1.1318,-6.5505,-0.2537,-0.0799,-0.1255,49.25982266,-122.75424433,1.35000002,
5.6660,0.1028,0.4032,0.7937,-2.5046,-1.1318,-6.5505,-0.2537,-0.0799,-0.1255,49.25982266,-122.75424433,1.35000002,
5.7040,0.1599,0.4634,0.9219,-2.5046,-1.1318,-6.5505,-0.2537,-0.0799,-0.1255,49.25982266,-122.75424433,1.35000002,
5.7070,0.1888,0.5096,0.9680,-2.5046,-1.1318,-6.5505,-0.2537,-0.0799,-0.1255,49.25982266,-122.75424433,1.35000002,
5.7110,0.1888,0.5096,0.9680,-2.5046,-1.1318,-6.5505,-0.0909,0.0421,0.2731,49.25982266,-122.75424433,1.35000002,
5.7320,0.2674,0.5852,0.9823,-2.5046,-1.1318,-6.5505,-0.0909,0.0421,0.2731,49.25982266,-122.75424433,1.35000002,
5.7340,0.2674,0.5852,0.9823,-2.5483,-0.5870,-2.7020,-0.0909,0.0421,0.2731,49.25982266,-122.75424433,1.35000002,
5.7470,0.3601,0.6167,1.0714,-2.5483,-0.5870,-2.7020,-0.0909,0.0421,0.2731,49.25982266,-122.75424433,1.35000002,
5.7700,0.4522,0.6171,1.3119,-2.5483,-0.5870,-2.7020,-0.0909,0.0421,0.2731,49.25982266,-122.75424433,1.35000002,
5.7810,0.4522,0.6171,1.3119,-2.5483,-0.5870,-2.7020,-0.0952,0.0369,0.3236,49.25982266,-122.75424433,1.35000002,
5.8050,0.4522,0.6171,1.3119,-0.6474,1.3071,1.0166,-0.0952,0.0369,0.3236,49.25982266,-122.75424433,1.35000002,
5.8070,0.4764,0.6407,1.4235,-0.6474,1.3071,1.0166,-0.0952,0.0369,0.3236,49.25982266,-122.75424433,1.35000002,
5.8090,0.4684,0.6900,1.2311,-0.6474,1.3071,1.0166,-0.0952,0.0369,0.3236,49.25982266,-122.75424433,1.35000002,
5.8390,0.4457,0.6481,1.1781,-0.6474,1.3071,1.0166,-0.0952,0.0369,0.3236,49.25982266,-122.75424433,1.35000002,
5.8530,0.3787,0.5042,1.3924,-0.6474,1.3071,1.0166,-0.0952,0.0369,0.3236,49.25982266,-122.75424433,1.35000002,
5.8550,0.3787,0.5042,1.3924,-0.6474,1.3071,1.0166,-0.1117,0.5901,0.1145,49.25981830,-122.75426296,1.28999996,
5.8730,0.2680,0.4366,1.3543,-0.6474,1.3071,1.0166,-0.1117,0.5901,0.1145,49.25981830,-122.75426296,1.28999996,
5.8760,0.2680,0.4366,1.3543,1.8955,2.3534,4.0244,-0.1117,0.5901,0.1145,49.25981830,-122.75426296,1.28999996,
5.9050,0.2437,0.4576,1.1043,1.8955,2.3534,4.0244,-0.1117,0.5901,0.1145,49.25981830,-122.75426296,1.28999996,
5.9070,0.3030,0.4201,1.0186,1.8955,2.3534,4.0244,-0.1117,0.5901,0.1145,49.25981830,-122.75426296,1.28999996,
5.9240,0.3030,0.4201,1.0186,1.8955,2.3534,4.0244,0.3062,0.0645,0.1504,49.25981830,-122.75426296,1.28999996,
5.9440,0.4214,0.3401,1.1897,1.8955,2.3534,4.0244,0.3062,0.0645,0.1504,49.25981830,-122.75426296,1.28999996,
5.9470,0.4214,0.3401,1.1897,0.7529,1.0516,3.9487,0.3062,0.0645,0.1504,49.25981830,-122.75426296,1.28999996,
5.9490,0.4463,0.2542,1.2117,0.7529,1.0516,3.9487,0.3062,0.0645,0.1504,49.25981830,-122.75426296,1.28999996,
5.9710,0.3917,0.1945,1.1351,0.7529,1.0516,3.9487,0.3062,0.0645,0.1504,49.25981830,-122.75426296,1.28999996,
5.9920,0.3030,0.1609,0.9589,0.7529,1.0516,3.9487,0.3062,0.0645,0.1504,49.25981830,-122.75426296,1.28999996,
5.9950,0.3030,0.1609,0.9589,0.7529,1.0516,3.9487,0.2133,0.5854,0.3119,49.25981830,-122.75426296,1.28999996,
6.0160,0.3030,0.1609,0.9589,1.2723,-0.8272,2.4053,0.2133,0.5854,0.3119,49.25981830,-122.75426296,1.28999996,
6.0200,0.2218,0.1596,0.6829,1.2723,-0.8272,2.4053,0.2133,0.5854,0.3119,49.25981830,-122.75426296,1.28999996,
6.0380,0.1706,0.2084,0.3983,1.2723,-0.8272,2.4053,0.2133,0.5854,0.3119,49.25981830,-122.75426296,1.28999996,
6.0680,0.1706,0.2084,0.3983,1.2723,-0.8272,2.4053,1.1704,0.4456,0.5283,49.25981830,-122.75426296,1.28999996,
6.0710,0.1363,0.2842,0.1749,1.2723,-0.8272,2.4053,1.1704,0.4456,0.5283,49.25981830,-122.75426296,1.28999996,
6.0870,0.1363,0.2842,0.1749,0.4334,-3.1038,0.0896,1.1704,0.4456,0.5283,49.25981830,-122.75426296,1.28999996,
6.0890,0.1294,0.3602,0.0803,0.4334,-3.1038,0.0896,1.1704,0.4456,0.5283,49.25981830,-122.75426296,1.28999996,
6.0900,0.1037,0.4076,0.1501,0.4334,-3.1038,0.0896,1.1704,0.4456,0.5283,49.25981830,-122.75426296,1.28999996,
6.1380,0.1037,0.4076,0.1501,0.4334,-3.1038,0.0896,0.6103,-0.4518,0.1717,49.25981830,-122.75426296,1.28999996,
6.1410,0.0723,0.4390,0.3302,0.4334,-3.1038,0.0896,0.6103,-0.4518,0.1717,49.25981830,-122.75426296,1.28999996,
6.1430,0.1127,0.5273,0.4710,0.4334,-3.1038,0.0896,0.6103,-0.4518,0.1717,49.25981830,-122.75426296,1.28999996,
6.1580,0.1127,0.5273,0.4710,-1.4702,-1.8110,-6.3479,0.6103,-0.4518,0.1717,49.25981830,-122.75426296,1.28999996,
6.1610,0.1633,0.6013,0.5801,-1.4702,-1.8110,-6.3479,0.6103,-0.4518,0.1717,49.25981830,-122.75426296,1.28999996,
6.1700,0.1581,0.6019,0.7269,-1.4702,-1.8110,-6.3479,0.6103,-0.4518,0.1717,49.25981830,-122.75426296,1.28999996,
6.2090,0.1713,0.5892,0.9153,-1.4702,-1.8110,-6.3479,0.6103,-0.4518,0.1717,49.25981830,-122.75426296,1.28999996,
6.2110,0.1713,0.5892,0.9153,-1.4702,-1.8110,-6.3479,0.2573,-0.6626,-0.1685,49.25981830,-122.75426296,1.28999996,
6.2290,0.2360,0.6216,1.0449,-1.4702,-1.8110,-6.3479,0.2573,-0.6626,-0.1685,49.25981830,-122.75426296,1.28999996,
6.2310,0.2746,0.6703,1.0070,-1.4702,-1.8110,-6.3479,0.2573,-0.6626,-0.1685,49.25981830,-122.75426296,1.28999996,
6.2330,0.2746,0.6703,1.0070,-1.7476,0.0039,-2.8699,0.2573,-0.6626,-0.1685,49.25981830,-122.75426296,1.28999996,
6.2790,0.2298,0.6918,0.8467,-1.7476,0.0039,-2.8699,0.2573,-0.6626,-0.1685,49.25981830,-122.75426296,1.28999996,
6.2820,0.2298,0.6918,0.8467,-1.7476,0.0039,-2.8699,0.0138,-0.2468,-0.1630,49.25981830,-122.75426296,1.28999996,
6.2840,0.1517,0.7044,0.7704,-1.7476,0.0039,-2.8699,0.0138,-0.2468,-0.1630,49.25981830,-122.75426296,1.28999996,
6.3010,0.1713,0.7111,0.8433,-1.7476,0.0039,-2.8699,0.0138,-0.2468,-0.1630,49.25981830,-122.75426296,1.28999996,
6.3040,0.1713,0.7111,0.8433,-0.9067,0.9411,1.6383,0.0138,-0.2468,-0.1630,49.25981830,-122.75426296,1.28999996,
6.3530,0.3191,0.6711,0.9508,-0.9067,0.9411,1.6383,0.0138,-0.2468,-0.1630,49.25981830,-122.75426296,1.28999996,
6.3570,0.3191,0.6711,0.9508,-0.9067,0.9411,1.6383,-0.5948,-0.5830,0.0129,49.25981830,-122.75426296,1.28999996,
6.3590,0.4414,0.6217,1.0732,-0.9067,0.9411,1.6383,-0.5948,-0.5830,0.0129,49.25981830,-122.75426296,1.28999996,
6.3720,0.5422,0.5792,1.1729,-0.9067,0.9411,1.6383,-0.5948,-0.5830,0.0129,49.25981830,-122.75426296,1.28999996,
6.3750,0.5726,0.5174,1.2360,-0.9067,0.9411,1.6383,-0.5948,-0.5830,0.0129,49.25981830,-122.75426296,1.28999996,
6.3760,0.5726,0.5174,1.2360,-1.3686,1.9858,0.3536,-0.5948,-0.5830,0.0129,49.25981830,-122.75426296,1.28999996,
6.4210,0.5726,0.5174,1.2360,-1.3686,1.9858,0.3536,-0.1737,-0.3192,-0.0646,49.25981830,-122.75426296,1.28999996,
6.4220,0.5928,0.4588,1.1791,-1.3686,1.9858,0.3536,-0.1737,-0.3192,-0.0646,49.25981830,-122.75426296,1.28999996,
6.4220,0.6199,0.3884,0.9631,-1.3686,1.9858,0.3536,-0.1737,-0.3192,-0.0646,49.25981830,-122.75426296,1.28999996,
6.4390,0.6877,0.3453,0.9302,-1.3686,1.9858,0.3536,-0.1737,-0.3192,-0.0646,49.25981830,-122.75426296,1.28999996,
6.4410,0.6877,0.3453,0.9302,1.3339,0.9016,3.2676,-0.1737,-0.3192,-0.0646,49.25981830,-122.75426296,1.28999996,
6.4930,0.7208,0.3330,0.9292,1.3339,0.9016,3.2676,-0.1737,-0.3192,-0.0646,49.25981830,-122.75426296,1.28999996,
6.4940,0.7208,0.3330,0.9292,1.3339,0.9016,3.2676,-0.3720,-0.2828,-0.0517,49.25981830,-122.75426296,1.28999996,
6.4940,0.6291,0.3189,0.8521,1.3339,0.9016,3.2676,-0.3720,-0.2828,-0.0517,49.25981830,-122.75426296,1.28999996,
6.5030,0.5098,0.3210,0.7175,1.3339,0.9016,3.2676,-0.3720,-0.2828,-0.0517,49.25981830,-122.75426296,1.28999996,
6.5130,0.5098,0.3210,0.7175,2.7190,-0.8252,1.9581,-0.3720,-0.2828,-0.0517,49.25981830,-122.75426296,1.28999996,
6.5160,0.3887,0.3285,0.5418,2.7190,-0.8252,1.9581,-0.3720,-0.2828,-0.0517,49.25981830,-122.75426296,1.28999996,
6.5660,0.3887,0.3285,0.5418,2.7190,-0.8252,1.9581,-0.2367,0.0456,-0.1625,49.25981830,-122.75426296,1.28999996,
6.5690,0.2679,0.3355,0.3947,2.7190,-0.8252,1.9581,-0.2367,0.0456,-0.1625,49.25981830,-122.75426296,1.28999996,
6.5710,0.1494,0.3383,0.2677,2.7190,-0.8252,1.9581,-0.2367,0.0456,-0.1625,49.25981830,-122.75426296,1.28999996,
6.5860,0.0729,0.3490,0.1780,2.7190,-0.8252,1.9581,-0.2367,0.0456,-0.1625,49.25981830,-122.75426296,1.28999996,
6.5880,0.0729,0.3490,0.1780,1.6904,-1.3493,-0.8339,-0.2367,0.0456,-0.1625,49.25981830,-122.75426296,1.28999996,
6.6350,0.0729,0.3490,0.1780,1.6904,-1.3493,-0.8339,-0.3681,-0.3163,-0.2414,49.25981830,-122.75426296,1.28999996,
6.6380,0.0558,0.3740,0.1666,1.6904,-1.3493,-0.8339,-0.3681,-0.3163,-0.2414,49.25981830,-122.75426296,1.28999996,
6.6400,0.0732,0.3903,0.2265,1.6904,-1.3493,-0.8339,-0.3681,-0.3163,-0.2414,49.25981830,-122.75426296,1.28999996,
6.6420,0.0860,0.3865,0.3487,1.6904,-1.3493,-0.8339,-0.3681,-0.3163,-0.2414,49.25981830,-122.75426296,1.28999996,
6.6550,0.0860,0.3865,0.3487,-2.2354,-0.9484,-5.3984,-0.3681,-0.3163,-0.2414,49.25981830,-122.75426296,1.28999996,
6.6580,0.0903,0.4048,0.5095,-2.2354,-0.9484,-5.3984,-0.3681,-0.3163,-0.2414,49.25981830,-122.75426296,1.28999996,
6.7050,0.0966,0.4471,0.6670,-2.2354,-0.9484,-5.3984,-0.3681,-0.3163,-0.2414,49.25981830,-122.75426296,1.28999996,
6.7070,0.1149,0.5054,0.8337,-2.2354,-0.9484,-5.3984,-0.3681,-0.3163,-0.2414,49.25981830,-122.75426296,1.28999996,
6.7090,0.1149,0.5054,0.8337,-2.2354,-0.9484,-5.3984,-0.4344,-0.3320,-0.1091,49.25981830,-122.75426296,1.28999996,
6.7260,0.2015,0.5905,0.9670,-2.2354,-0.9484,-5.3984,-0.4344,-0.3320,-0.1091,49.25981830,-122.75426296,1.28999996,
6.7290,0.2015,0.5905,0.9670,-3.0376,-0.2903,-4.6301,-0.4344,-0.3320,-0.1091,49.25981830,-122.75426296,1.28999996,
6.7430,0.3150,0.6927,1.0332,-3.0376,-0.2903,-4.6301,-0.4344,-0.3320,-0.1091,49.25981830,-122.75426296,1.28999996,
6.7710,0.3561,0.7458,1.0262,-3.0376,-0.2903,-4.6301,-0.4344,-0.3320,-0.1091,49.25981830,-122.75426296,1.28999996,
6.7780,0.3561,0.7458,1.0262,-3.0376,-0.2903,-4.6301,-0.2662,0.0019,0.0974,49.25981830,-122.75426296,1.28999996,
6.7800,0.3544,0.7225,1.0980,-3.0376,-0.2903,-4.6301,-0.2662,0.0019,0.0974,49.25981830,-122.75426296,1.28999996,
6.7990,0.3544,0.7225,1.0980,-2.1175,1.3437,0.2745,-0.2662,0.0019,0.0974,49.25981830,-122.75426296,1.28999996,
6.8010,0.3793,0.6743,1.2797,-2.1175,1.3437,0.2745,-0.2662,0.0019,0.0974,49.25981830,-122.75426296,1.28999996,
6.8390,0.4110,0.6510,1.4115,-2.1175,1.3437,0.2745,-0.2662,0.0019,0.0974,49.25981830,-122.75426296,1.28999996,
6.8520,0.4557,0.6743,1.2846,-2.1175,1.3437,0.2745,-0.2662,0.0019,0.0974,49.25981830,-122.75426296,1.28999996,
6.8530,0.4557,0.6743,1.2846,-2.1175,1.3437,0.2745,-0.2386,0.5182,0.1406,49.25981490,-122.75427954,1.33000004,
6.8690,0.4557,0.6743,1.2846,0.1097,3.1421,2.6826,-0.2386,0.5182,0.1406,49.25981490,-122.75427954,1.33000004,
6.8710,0.4887,0.6072,1.2256,0.1097,3.1421,2.6826,-0.2386,0.5182,0.1406,49.25981490,-122.75427954,1.33000004,
6.9060,0.4943,0.4633,1.4478,0.1097,3.1421,2.6826,-0.2386,0.5182,0.1406,49.25981490,-122.75427954,1.33000004,
6.9090,0.4744,0.3647,1.5735,0.1097,3.1421,2.6826,-0.2386,0.5182,0.1406,49.25981490,-122.75427954,1.33000004,
6.9200,0.4744,0.3647,1.5735,0.1097,3.1421,2.6826,0.1485,0.6429,0.1322,49.25981490,-122.75427954,1.33000004,
6.9410,0.4744,0.3647,1.5735,1.3352,2.0372,4.5077,0.1485,0.6429,0.1322,49.25981490,-122.75427954,1.33000004,
6.9450,0.4700,0.3635,1.3341,1.3352,2.0372,4.5077,0.1485,0.6429,0.1322,49.25981490,-122.75427954,1.33000004,
6.9470,0.5069,0.3780,1.1414,1.3352,2.0372,4.5077,0.1485,0.6429,0.1322,49.25981490,-122.75427954,1.33000004,
6.9720,0.5388,0.3390,1.1457,1.3352,2.0372,4.5077,0.1485,0.6429,0.1322,49.25981490,-122.75427954,1.33000004,
6.9920,0.4876,0.2764,1.1570,1.3352,2.0372,4.5077,0.1485,0.6429,0.1322,49.25981490,-122.75427954,1.33000004,
6.9950,0.4876,0.2764,1.1570,1.3352,2.0372,4.5077,0.0185,0.4114,0.1313,49.25981490,-122.75427954,1.33000004,
7.0100,0.4876,0.2764,1.1570,1.9254,-0.1840,4.7725,0.0185,0.4114,0.1313,49.25981490,-122.75427954,1.33000004,
7.0130,0.3971,0.2178,1.1112,1.9254,-0.1840,4.7725,0.0185,0.4114,0.1313,49.25981490,-122.75427954,1.33000004,
7.0390,0.3173,0.2007,1.0053,1.9254,-0.1840,4.7725,0.0185,0.4114,0.1313,49.25981490,-122.75427954,1.33000004,
7.0620,0.3173,0.2007,1.0053,1.9254,-0.1840,4.7725,0.1721,0.8179,0.3474,49.25981490,-122.75427954,1.33000004,
7.0650,0.2674,0.2114,0.8256,1.9254,-0.1840,4.7725,0.1721,0.8179,0.3474,49.25981490,-122.75427954,1.33000004,
7.0810,0.2674,0.2114,0.8256,1.9149,-1.4877,2.3014,0.1721,0.8179,0.3474,49.25981490,-122.75427954,1.33000004,
7.0840,0.2406,0.2470,0.6170,1.9149,-1.4877,2.3014,0.1721,0.8179,0.3474,49.25981490,-122.75427954,1.33000004,
7.0860,0.2063,0.2820,0.4127,1.9149,-1.4877,2.3014,0.1721,0.8179,0.3474,49.25981490,-122.75427954,1.33000004,
7.1050,0.1671,0.3140,0.2759,1.9149,-1.4877,2.3014,0.1721,0.8179,0.3474,49.25981490,-122.75427954,1.33000004,
7.1330,0.1671,0.3140,0.2759,1.9149,-1.4877,2.3014,0.7601,0.3866,0.1796,49.25981490,-122.75427954,1.33000004,
7.1360,0.1686,0.3434,0.2583,1.9149,-1.4877,2.3014,0.7601,0.3866,0.1796,49.25981490,-122.75427954,1.33000004,
7.1540,0.1686,0.3434,0.2583,-0.0070,-2.1572,-1.9426,0.7601,0.3866,0.1796,49.25981490,-122.75427954,1.33000004,
7.1570,0.1500,0.3409,0.3845,-0.0070,-2.1572,-1.9426,0.7601,0.3866,0.1796,49.25981490,-122.75427954,1.33000004,
7.1720,0.1456,0.3699,0.4987,-0.0070,-2.1572,-1.9426,0.7601,0.3866,0.1796,49.25981490,-122.75427954,1.33000004,
7.2050,0.1684,0.4497,0.5953,-0.0070,-2.1572,-1.9426,0.7601,0.3866,0.1796,49.25981490,-122.75427954,1.33000004,
7.2080,0.1684,0.4497,0.5953,-0.0070,-2.1572,-1.9426,0.8883,-0.0575,-0.1207,49.25981490,-122.75427954,1.33000004,
7.2250,0.1684,0.4497,0.5953,-0.8623,-1.8262,-4.7903,0.8883,-0.0575,-0.1207,49.25981490,-122.75427954,1.33000004,
7.2280,0.1645,0.5355,0.6969,-0.8623,-1.8262,-4.7903,0.8883,-0.0575,-0.1207,49.25981490,-122.75427954,1.33000004,
7.2290,0.1513,0.6226,0.7216,-0.8623,-1.8262,-4.7903,0.8883,-0.0575,-0.1207,49.25981490,-122.75427954,1.33000004,
7.2750,0.2366,0.7137,0.7162,-0.8623,-1.8262,-4.7903,0.8883,-0.0575,-0.1207,49.25981490,-122.75427954,1.33000004,
7.2790,0.2366,0.7137,0.7162,-0.8623,-1.8262,-4.7903,1.2558,-0.4869,-0.1989,49.25981490,-122.75427954,1.33000004,
7.2810,0.4196,0.7825,0.7403,-0.8623,-1.8262,-4.7903,1.2558,-0.4869,-0.1989,49.25981490,-122.75427954,1.33000004,
7.2950,0.4196,0.7825,0.7403,-1.0614,-0.7043,-1.1393,1.2558,-0.4869,-0.1989,49.25981490,-122.75427954,1.33000004,
7.2990,0.4818,0.7863,0.7429,-1.0614,-0.7043,-1.1393,1.2558,-0.4869,-0.1989,49.25981490,-122.75427954,1.33000004,
7.3450,0.3790,0.7125,0.6866,-1.0614,-0.7043,-1.1393,1.2558,-0.4869,-0.1989,49.25981490,-122.75427954,1.33000004,
7.3490,0.3790,0.7125,0.6866,-1.0614,-0.7043,-1.1393,-0.2220,-0.6622,-0.4339,49.25981490,-122.75427954,1.33000004,
7.3510,0.2936,0.6572,0.6824,-1.0614,-0.7043,-1.1393,-0.2220,-0.6622,-0.4339,49.25981490,-122.75427954,1.33000004,
7.3670,0.2936,0.6572,0.6824,0.8496,1.9411,-0.4687,-0.2220,-0.6622,-0.4339,49.25981490,-122.75427954,1.33000004,
7.3700,0.3501,0.6589,0.7649,0.8496,1.9411,-0.4687,-0.2220,-0.6622,-0.4339,49.25981490,-122.75427954,1.33000004,
7.3720,0.3890,0.5995,0.8299,0.8496,1.9411,-0.4687,-0.2220,-0.6622,-0.4339,49.25981490,-122.75427954,1.33000004,
7.4180,0.4936,0.5883,0.8411,0.8496,1.9411,-0.4687,-0.2220,-0.6622,-0.4339,49.25981490,-122.75427954,1.33000004,
7.4210,0.4936,0.5883,0.8411,0.8496,1.9411,-0.4687,-1.2547,-1.0773,-0.2553,49.25981490,-122.75427954,1.33000004,
7.4240,0.6487,0.5648,0.8757,0.8496,1.9411,-0.4687,-1.2547,-1.0773,-0.2553,49.25981490,-122.75427954,1.33000004,
7.4400,0.6895,0.3848,1.1015,0.8496,1.9411,-0.4687,-1.2547,-1.0773,-0.2553,49.25981490,-122.75427954,1.33000004,
7.4430,0.6895,0.3848,1.1015,0.0372,1.4982,-0.5665,-1.2547,-1.0773,-0.2553,49.25981490,-122.75427954,1.33000004,
7.4880,0.6895,0.3848,1.1015,0.0372,1.4982,-0.5665,-1.1174,-1.0477,-0.6651,49.25981490,-122.75427954,1.33000004,
7.4920,0.6706,0.1730,1.2087,0.0372,1.4982,-0.5665,-1.1174,-1.0477,-0.6651,49.25981490,-122.75427954,1.33000004,
7.4940,0.6833,0.0807,1.0296,0.0372,1.4982,-0.5665,-1.1174,-1.0477,-0.6651,49.25981490,-122.75427954,1.33000004,
7.4960,0.6912,0.0652,0.9381,0.0372,1.4982,-0.5665,-1.1174,-1.0477,-0.6651,49.25981490,-122.75427954,1.33000004,
7.5090,0.6912,0.0652,0.9381,2.3001,0.2071,1.6403,-1.1174,-1.0477,-0.6651,49.25981490,-122.75427954,1.33000004,
7.5120,0.6441,0.0822,0.8489,2.3001,0.2071,1.6403,-1.1174,-1.0477,-0.6651,49.25981490,-122.75427954,1.33000004,
7.5600,0.5630,0.1064,0.8091,2.3001,0.2071,1.6403,-1.1174,-1.0477,-0.6651,49.25981490,-122.75427954,1.33000004,
7.5630,0.5630,0.1064,0.8091,2.3001,0.2071,1.6403,-1.5544,-0.5290,-0.4726,49.25981490,-122.75427954,1.33000004,
7.5650,0.4767,0.1463,0.8664,2.3001,0.2071,1.6403,-1.5544,-0.5290,-0.4726,49.25981490,-122.75427954,1.33000004,
7.5710,0.3878,0.2072,0.8056,2.3001,0.2071,1.6403,-1.5544,-0.5290,-0.4726,49.25981490,-122.75427954,1.33000004,
7.5790,0.3878,0.2072,0.8056,2.6478,-2.7810,1.2192,-1.5544,-0.5290,-0.4726,49.25981490,-122.75427954,1.33000004,
7.6310,0.3878,0.2072,0.8056,2.6478,-2.7810,1.2192,-0.7676,-0.7571,-0.4635,49.25981490,-122.75427954,1.33000004,
7.6350,0.3204,0.2818,0.6296,2.6478,-2.7810,1.2192,-0.7676,-0.7571,-0.4635,49.25981490,-122.75427954,1.33000004,
7.6360,0.2718,0.3403,0.4212,2.6478,-2.7810,1.2192,-0.7676,-0.7571,-0.4635,49.25981490,-122.75427954,1.33000004,
7.6460,0.2224,0.3673,0.3452,2.6478,-2.7810,1.2192,-0.7676,-0.7571,-0.4635,49.25981490,-122.75427954,1.33000004,
7.6550,0.2224,0.3673,0.3452,0.1628,-1.6460,-0.3463,-0.7676,-0.7571,-0.4635,49.25981490,-122.75427954,1.33000004,
7.6580,0.1910,0.3613,0.4237,0.1628,-1.6460,-0.3463,-0.7676,-0.7571,-0.4635,49.25981490,-122.75427954,1.33000004,
7.7030,0.1329,0.3393,0.5331,0.1628,-1.6460,-0.3463,-0.7676,-0.7571,-0.4635,49.25981490,-122.75427954,1.33000004,
7.7070,0.1329,0.3393,0.5331,0.1628,-1.6460,-0.3463,-0.8559,-0.6671,-0.6687,49.25981490,-122.75427954,1.33000004,
7.7100,0.0865,0.3475,0.6194,0.1628,-1.6460,-0.3463,-0.8559,-0.6671,-0.6687,49.25981490,-122.75427954,1.33000004,
7.7210,0.0865,0.3475,0.6194,-2.1291,0.3663,-4.0251,-0.8559,-0.6671,-0.6687,49.25981490,-122.75427954,1.33000004,
7.7250,0.0660,0.3796,0.6802,-2.1291,0.3663,-4.0251,-0.8559,-0.6671,-0.6687,49.25981490,-122.75427954,1.33000004,
7.7450,0.0854,0.4312,0.7964,-2.1291,0.3663,-4.0251,-0.8559,-0.6671,-0.6687,49.25981490,-122.75427954,1.33000004,
7.7700,0.0921,0.4744,0.9722,-2.1291,0.3663,-4.0251,-0.8559,-0.6671,-0.6687,49.25981490,-122.75427954,1.33000004,
7.7730,0.0921,0.4744,0.9722,-2.1291,0.3663,-4.0251,-0.6485,-0.4708,-0.3818,49.25981490,-122.75427954,1.33000004,
7.7790,0.1087,0.5089,1.1826,-2.1291,0.3663,-4.0251,-0.6485,-0.4708,-0.3818,49.25981490,-122.75427954,1.33000004,
7.7920,0.1444,0.5449,1.3358,-2.1291,0.3663,-4.0251,-0.6485,-0.4708,-0.3818,49.25981490,-122.75427954,1.33000004,
7.7960,0.1444,0.5449,1.3358,-3.6127,0.7584,-1.9622,-0.6485,-0.4708,-0.3818,49.25981490,-122.75427954,1.33000004,
7.8400,0.2095,0.5692,1.3539,-3.6127,0.7584,-1.9622,-0.6485,-0.4708,-0.3818,49.25981490,-122.75427954,1.33000004,
7.8430,0.2709,0.5627,1.3194,-3.6127,0.7584,-1.9622,-0.6485,-0.4708,-0.3818,49.25981490,-122.75427954,1.33000004,
7.8440,0.2709,0.5627,1.3194,-3.6127,0.7584,-1.9622,-0.0353,0.2535,0.1353,49.25981490,-122.75427954,1.33000004,
7.8640,0.2709,0.5627,1.3194,-3.1885,2.0731,2.6216,-0.0353,0.2535,0.1353,49.25981490,-122.75427954,1.33000004,
7.8660,0.3689,0.5521,1.3696,-3.1885,2.0731,2.6216,-0.0353,0.2535,0.1353,49.25981156,-122.75429798,1.41999996,
7.9050,0.4606,0.5334,1.3885,-3.1885,2.0731,2.6216,-0.0353,0.2535,0.1353,49.25981156,-122.75429798,1.41999996,
7.9080,0.4670,0.4715,1.2613,-3.1885,2.0731,2.6216,-0.0353,0.2535,0.1353,49.25981156,-122.75429798,1.41999996,
7.9140,0.4670,0.4715,1.2613,-3.1885,2.0731,2.6216,0.2071,0.7436,0.4001,49.25981156,-122.75429798,1.41999996,
7.9360,0.4892,0.3628,1.3215,-3.1885,2.0731,2.6216,0.2071,0.7436,0.4001,49.25981156,-122.75429798,1.41999996,
7.9390,0.4892,0.3628,1.3215,-0.9325,2.5190,4.7644,0.2071,0.7436,0.4001,49.25981156,-122.75429798,1.41999996,
7.9420,0.5881,0.2290,1.4367,-0.9325,2.5190,4.7644,0.2071,0.7436,0.4001,49.25981156,-122.75429798,1.41999996,
7.9720,0.6893,0.1015,1.4001,-0.9325,2.5190,4.7644,0.2071,0.7436,0.4001,49.25981156,-122.75429798,1.41999996,
7.9860,0.8200,0.0760,1.3111,-0.9325,2.5190,4.7644,0.2071,0.7436,0.4001,49.25981156,-122.75429798,1.41999996,
7.9890,0.8200,0.0760,1.3111,-0.9325,2.5190,4.7644,0.8650,0.2579,0.5339,49.25981156,-122.75429798,1.41999996,
8.0060,0.8200,0.0760,1.3111,1.0479,0.3691,4.6981,0.8650,0.2579,0.5339,49.25981156,-122.75429798,1.41999996,
8.0090,0.8545,0.1030,1.0943,1.0479,0.3691,4.6981,0.8650,0.2579,0.5339,49.25981156,-122.75429798,1.41999996,
8.0390,0.7817,0.1217,0.8994,1.0479,0.3691,4.6981,0.8650,0.2579,0.5339,49.25981156,-122.75429798,1.41999996,
8.0420,0.6699,0.1283,0.8401,1.0479,0.3691,4.6981,0.8650,0.2579,0.5339,49.25981156,-122.75429798,1.41999996,
8.0560,0.6699,0.1283,0.8401,1.0479,0.3691,4.6981,0.2671,0.6305,0.4831,49.25981156,-122.75429798,1.41999996,
8.0780,0.6699,0.1283,0.8401,4.1079,-2.3126,3.2574,0.2671,0.6305,0.4831,49.25981156,-122.75429798,1.41999996,
8.0810,0.5526,0.1370,0.8420,4.1079,-2.3126,3.2574,0.2671,0.6305,0.4831,49.25981156,-122.75429798,1.41999996,
8.0830,0.3993,0.1322,0.7781,4.1079,-2.3126,3.2574,0.2671,0.6305,0.4831,49.25981156,-122.75429798,1.41999996,
8.1060,0.2940,0.1626,0.5922,4.1079,-2.3126,3.2574,0.2671,0.6305,0.4831,49.25981156,-122.75429798,1.41999996,
8.1280,0.2940,0.1626,0.5922,4.1079,-2.3126,3.2574,0.8300,0.7325,0.6126,49.25981156,-122.75429798,1.41999996,
8.1300,0.2505,0.2195,0.3735,4.1079,-2.3126,3.2574,0.8300,0.7325,0.6126,49.25981156,-122.75429798,1.41999996,
8.1480,0.2505,0.2195,0.3735,2.1108,-2.4383,-0.4693,0.8300,0.7325,0.6126,49.25981156,-122.75429798,1.41999996,
8.1510,0.2464,0.2886,0.2033,2.1108,-2.4383,-0.4693,0.8300,0.7325,0.6126,49.25981156,-122.75429798,1.41999996,
8.1720,0.2553,0.3299,0.1628,2.1108,-2.4383,-0.4693,0.8300,0.7325,0.6126,49.25981156,-122.75429798,1.41999996,
8.2000,0.2230,0.3220,0.2786,2.1108,-2.4383,-0.4693,0.8300,0.7325,0.6126,49.25981156,-122.75429798,1.41999996,
8.2030,0.2230,0.3220,0.2786,2.1108,-2.4383,-0.4693,0.9114,0.0871,0.3446,49.25981156,-122.75429798,1.41999996,
8.2190,0.2230,0.3220,0.2786,-1.0298,-1.8116,-4.7285,0.9114,0.0871,0.3446,49.25981156,-122.75429798,1.41999996,
8.2220,0.2271,0.3170,0.4069,-1.0298,-1.8116,-4.7285,0.9114,0.0871,0.3446,49.25981156,-122.75429798,1.41999996,
8.2240,0.2962,0.3518,0.4677,-1.0298,-1.8116,-4.7285,0.9114,0.0871,0.3446,49.25981156,-122.75429798,1.41999996,
8.2440,0.3573,0.3677,0.5194,-1.0298,-1.8116,-4.7285,0.9114,0.0871,0.3446,49.25981156,-122.75429798,1.41999996,
8.2690,0.4057,0.3728,0.6636,-1.0298,-1.8116,-4.7285,0.9114,0.0871,0.3446,49.25981156,-122.75429798,1.41999996,
8.2730,0.4057,0.3728,0.6636,-1.0298,-1.8116,-4.7285,0.7789,-0.6015,0.0479,49.25981156,-122.75429798,1.41999996,
8.2900,0.4057,0.3728,0.6636,-1.5572,-1.2670,-4.2753,0.7789,-0.6015,0.0479,49.25981156,-122.75429798,1.41999996,
8.2930,0.4615,0.3750,0.7474,-1.5572,-1.2670,-4.2753,0.7789,-0.6015,0.0479,49.25981156,-122.75429798,1.41999996,
8.3060,0.5421,0.4003,0.7876,-1.5572,-1.2670,-4.2753,0.7789,-0.6015,0.0479,49.25981156,-122.75429798,1.41999996,
8.3400,0.6006,0.4447,0.7957,-1.5572,-1.2670,-4.2753,0.7789,-0.6015,0.0479,49.25981156,-122.75429798,1.41999996,
8.3430,0.6006,0.4447,0.7957,-1.5572,-1.2670,-4.2753,0.0440,-0.7716,-0.0729,49.25981156,-122.75429798,1.41999996,
8.3620,0.6006,0.4447,0.7957,-0.1488,-0.6496,-1.1535,0.0440,-0.7716,-0.0729,49.25981156,-122.75429798,1.41999996,
8.3660,0.5910,0.4861,0.7902,-0.1488,-0.6496,-1.1535,0.0440,-0.7716,-0.0729,49.25981156,-122.75429798,1.41999996,
8.3680,0.5778,0.5087,0.8956,-0.1488,-0.6496,-1.1535,0.0440,-0.7716,-0.0729,49.25981156,-122.75429798,1.41999996,
8.4120,0.5778,0.5087,0.8956,-0.1488,-0.6496,-1.1535,-0.9258,-0.6516,-0.2249,49.25981156,-122.75429798,1.41999996,
8.4160,0.6164,0.4997,1.1002,-0.1488,-0.6496,-1.1535,-0.9258,-0.6516,-0.2249,49.25981156,-122.75429798,1.41999996,
8.4180,0.7504,0.5164,1.1952,-0.1488,-0.6496,-1.1535,-0.9258,-0.6516,-0.2249,49.25981156,-122.75429798,1.41999996,
8.4310,0.7504,0.5164,1.1952,1.1285,0.6216,0.3722,-0.9258,-0.6516,-0.2249,49.25981156,-122.75429798,1.41999996,
8.4350,0.8074,0.5266,1.2093,1.1285,0.6216,0.3722,-0.9258,-0.6516,-0.2249,49.25981156,-122.75429798,1.41999996,
8.4850,0.8074,0.5266,1.2093,1.1285,0.6216,0.3722,-0.5674,-0.1670,-0.5142,49.25981156,-122.75429798,1.41999996,
8.4890,0.7381,0.4754,1.0740,1.1285,0.6216,0.3722,-0.5674,-0.1670,-0.5142,49.25981156,-122.75429798,1.41999996,
8.4900,0.6176,0.4236,0.9696,1.1285,0.6216,0.3722,-0.5674,-0.1670,-0.5142,49.25981156,-122.75429798,1.41999996,
8.4960,0.5321,0.3865,0.8613,1.1285,0.6216,0.3722,-0.5674,-0.1670,-0.5142,49.25981156,-122.75429798,1.41999996,
8.5030,0.5150,0.3330,0.8053,1.1285,0.6216,0.3722,-0.5674,-0.1670,-0.5142,49.25981156,-122.75429798,1.41999996,
8.5050,0.5150,0.3330,0.8053,2.5733,1.0853,3.5367,-0.5674,-0.1670,-0.5142,49.25981156,-122.75429798,1.41999996,
8.5540,0.5572,0.2726,0.9034,2.5733,1.0853,3.5367,-0.5674,-0.1670,-0.5142,49.25981156,-122.75429798,1.41999996,
8.5570,0.5572,0.2726,0.9034,2.5733,1.0853,3.5367,-0.3706,-0.6021,-0.4426,49.25981156,-122.75429798,1.41999996,
8.5590,0.5616,0.2322,0.9907,2.5733,1.0853,3.5367,-0.3706,-0.6021,-0.4426,49.25981156,-122.75429798,1.41999996,
8.5720,0.4953,0.2387,0.9046,2.5733,1.0853,3.5367,-0.3706,-0.6021,-0.4426,49.25981156,-122.75429798,1.41999996,
8.5750,0.4953,0.2387,0.9046,0.8707,0.0379,1.0477,-0.3706,-0.6021,-0.4426,49.25981156,-122.75429798,1.41999996,
8.6260,0.4953,0.2387,0.9046,0.8707,0.0379,1.0477,-0.2069,0.0903,-0.1850,49.25981156,-122.75429798,1.41999996,
8.6290,0.4297,0.2522,0.7664,0.8707,0.0379,1.0477,-0.2069,0.0903,-0.1850,49.25981156,-122.75429798,1.41999996,
8.6310,0.3355,0.2696,0.6695,0.8707,0.0379,1.0477,-0.2069,0.0903,-0.1850,49.25981156,-122.75429798,1.41999996,
8.6390,0.2239,0.2671,0.5377,0.8707,0.0379,1.0477,-0.2069,0.0903,-0.1850,49.25981156,-122.75429798,1.41999996,
8.6450,0.2239,0.2671,0.5377,0.4937,-1.3915,1.0652,-0.2069,0.0903,-0.1850,49.25981156,-122.75429798,1.41999996,
8.6480,0.1427,0.2774,0.4098,0.4937,-1.3915,1.0652,-0.2069,0.0903,-0.1850,49.25981156,-122.75429798,1.41999996,
8.6960,0.1399,0.3180,0.3630,0.4937,-1.3915,1.0652,-0.2069,0.0903,-0.1850,49.25981156,-122.75429798,1.41999996,
8.6990,0.1399,0.3180,0.3630,0.4937,-1.3915,1.0652,0.2512,-0.0466,-0.0974,49.25981156,-122.75429798,1.41999996,
8.7010,0.1228,0.3335,0.3608,0.4937,-1.3915,1.0652,0.2512,-0.0466,-0.0974,49.25981156,-122.75429798,1.41999996,
8.7160,0.1228,0.3335,0.3608,-2.1381,-1.3167,-2.1526,0.2512,-0.0466,-0.0974,49.25981156,-122.75429798,1.41999996,
8.7200,0.0945,0.3517,0.3589,-2.1381,-1.3167,-2.1526,0.2512,-0.0466,-0.0974,49.25981156,-122.75429798,1.41999996,
8.7440,0.0915,0.3784,0.4484,-2.1381,-1.3167,-2.1526,0.2512,-0.0466,-0.0974,49.25981156,-122.75429798,1.41999996,
8.7660,0.0915,0.3784,0.4484,-2.1381,-1.3167,-2.1526,0.1515,-0.1984,0.1253,49.25981156,-122.75429798,1.41999996,
8.7690,0.1725,0.4455,0.5423,-2.1381,-1.3167,-2.1526,0.1515,-0.1984,0.1253,49.25981156,-122.75429798,1.41999996,
8.7700,0.2831,0.4962,0.6369,-2.1381,-1.3167,-2.1526,0.1515,-0.1984,0.1253,49.25981156,-122.75429798,1.41999996,
8.7900,0.2831,0.4962,0.6369,-3.6967,-0.5809,-3.9374,0.1515,-0.1984,0.1253,49.25981156,-122.75429798,1.41999996,
8.7930,0.3834,0.4866,0.8856,-3.6967,-0.5809,-3.9374,0.1515,-0.1984,0.1253,49.25981156,-122.75429798,1.41999996,
8.8390,0.4598,0.4759,1.1907,-3.6967,-0.5809,-3.9374,0.1515,-0.1984,0.1253,49.25981156,-122.75429798,1.41999996,
8.8410,0.4598,0.4759,1.1907,-3.6967,-0.5809,-3.9374,-0.1287,0.1429,0.3308,49.25981156,-122.75429798,1.41999996,
8.8430,0.5078,0.4488,1.3496,-3.6967,-0.5809,-3.9374,-0.1287,0.1429,0.3308,49.25981156,-122.75429798,1.41999996,
8.8580,0.5307,0.4412,1.2673,-3.6967,-0.5809,-3.9374,-0.1287,0.1429,0.3308,49.25981156,-122.75429798,1.41999996,
8.8600,0.5307,0.4412,1.2673,-2.1865,0.7548,-1.2111,-0.1287,0.1429,0.3308,49.25981263,-122.75431582,1.38000000,
8.9060,0.5993,0.4614,1.2465,-2.1865,0.7548,-1.2111,-0.1287,0.1429,0.3308,49.25981263,-122.75431582,1.38000000,
8.9100,0.6474,0.5085,1.1890,-2.1865,0.7548,-1.2111,-0.1287,0.1429,0.3308,49.25981263,-122.75431582,1.38000000,
8.9120,0.6474,0.5085,1.1890,-2.1865,0.7548,-1.2111,0.5475,0.4857,0.6184,49.25981263,-122.75431582,1.38000000,
8.9290,0.6474,0.5085,1.1890,0.5697,0.6297,4.5152,0.5475,0.4857,0.6184,49.25981263,-122.75431582,1.38000000,
8.9330,0.6717,0.5737,0.9821,0.5697,0.6297,4.5152,0.5475,0.4857,0.6184,49.25981263,-122.75431582,1.38000000,
8.9350,0.5613,0.5710,0.8376,0.5697,0.6297,4.5152,0.5475,0.4857,0.6184,49.25981263,-122.75431582,1.38000000,
8.9730,0.4850,0.4642,0.9368,0.5697,0.6297,4.5152,0.5475,0.4857,0.6184,49.25981263,-122.75431582,1.38000000,
8.9760,0.5092,0.3531,1.2152,0.5697,0.6297,4.5152,0.5475,0.4857,0.6184,49.25981263,-122.75431582,1.38000000,
8.9810,0.5092,0.3531,1.2152,0.5697,0.6297,4.5152,-0.1329,0.8224,0.4842,49.25981263,-122.75431582,1.38000000,
8.9940,0.5362,0.2991,1.3213,0.5697,0.6297,4.5152,-0.1329,0.8224,0.4842,49.25981263,-122.75431582,1.38000000,
9.0000,0.5362,0.2991,1.3213,1.8294,1.5740,2.1260,-0.1329,0.8224,0.4842,49.25981263,-122.75431582,1.38000000,
9.0400,0.5470,0.3263,1.1031,1.8294,1.5740,2.1260,-0.1329,0.8224,0.4842,49.25981263,-122.75431582,1.38000000,
9.0450,0.5746,0.3426,0.9562,1.8294,1.5740,2.1260,-0.1329,0.8224,0.4842,49.25981263,-122.75431582,1.38000000,
9.0520,0.5746,0.3426,0.9562,1.8294,1.5740,2.1260,0.2850,0.3974,0.6389,49.25981263,-122.75431582,1.38000000,
9.0720,0.5746,0.3426,0.9562,0.8269,-0.0609,3.1609,0.2850,0.3974,0.6389,49.25981263,-122.75431582,1.38000000,
9.0750,0.5771,0.2972,0.9855,0.8269,-0.0609,3.1609,0.2850,0.3974,0.6389,49.25981263,-122.75431582,1.38000000,
9.0760,0.5466,0.2651,0.9459,0.8269,-0.0609,3.1609,0.2850,0.3974,0.6389,49.25981263,-122.75431582,1.38000000,
9.1060,0.4505,0.2200,0.8515,0.8269,-0.0609,3.1609,0.2850,0.3974,0.6389,49.25981263,-122.75431582,1.38000000,
9.1240,0.3497,0.2015,0.6541,0.8269,-0.0609,3.1609,0.2850,0.3974,0.6389,49.25981263,-122.75431582,1.38000000,
9.1260,0.3497,0.2015,0.6541,0.8269,-0.0609,3.1609,0.3183,0.7554,0.4628,49.25981263,-122.75431582,1.38000000,
9.1440,0.3497,0.2015,0.6541,1.6134,-0.7909,1.2218,0.3183,0.7554,0.4628,49.25981263,-122.75431582,1.38000000,
9.1470,0.2977,0.2238,0.4361,1.6134,-0.7909,1.2218,0.3183,0.7554,0.4628,49.25981263,-122.75431582,1.38000000,
9.1710,0.2800,0.2682,0.2697,1.6134,-0.7909,1.2218,0.3183,0.7554,0.4628,49.25981263,-122.75431582,1.38000000,
9.1940,0.2800,0.2682,0.2697,1.6134,-0.7909,1.2218,0.7727,0.1542,0.3070,49.25981263,-122.75431582,1.38000000,
9.1980,0.2426,0.2985,0.1728,1.6134,-0.7909,1.2218,0.7727,0.1542,0.3070,49.25981263,-122.75431582,1.38000000,
9.2130,0.2378,0.3155,0.1634,1.6134,-0.7909,1.2218,0.7727,0.1542,0.3070,49.25981263,-122.75431582,1.38000000,
9.2160,0.2867,0.3562,0.2651,1.6134,-0.7909,1.2218,0.7727,0.1542,0.3070,49.25981263,-122.75431582,1.38000000,
9.2180,0.2867,0.3562,0.2651,-0.5409,-1.8979,-2.2163,0.7727,0.1542,0.3070,49.25981263,-122.75431582,1.38000000,
9.2380,0.3315,0.3829,0.3905,-0.5409,-1.8979,-2.2163,0.7727,0.1542,0.3070,49.25981263,-122.75431582,1.38000000,
9.2630,0.3315,0.3829,0.3905,-0.5409,-1.8979,-2.2163,0.0204,-0.3726,-0.0895,49.25981263,-122.75431582,1.38000000,
9.2650,0.3733,0.4131,0.5465,-0.5409,-1.8979,-2.2163,0.0204,-0.3726,-0.0895,49.25981263,-122.75431582,1.38000000,
9.2830,0.4252,0.4681,0.6958,-0.5409,-1.8979,-2.2163,0.0204,-0.3726,-0.0895,49.25981263,-122.75431582,1.38000000,
9.2840,0.4252,0.4681,0.6958,-1.6470,-0.9277,-5.8649,0.0204,-0.3726,-0.0895,49.25981263,-122.75431582,1.38000000,
9.3040,0.4832,0.5117,0.9057,-1.6470,-0.9277,-5.8649,0.0204,-0.3726,-0.0895,49.25981263,-122.75431582,1.38000000,
9.3340,0.4897,0.5079,1.1024,-1.6470,-0.9277,-5.8649,0.0204,-0.3726,-0.0895,49.25981263,-122.75431582,1.38000000,
9.3350,0.4897,0.5079,1.1024,-1.6470,-0.9277,-5.8649,-0.3385,-0.2609,-0.4779,49.25981263,-122.75431582,1.38000000,
9.3550,0.4312,0.5057,1.1119,-1.6470,-0.9277,-5.8649,-0.3385,-0.2609,-0.4779,49.25981263,-122.75431582,1.38000000,
9.3570,0.4312,0.5057,1.1119,-0.2505,0.2120,-2.1374,-0.3385,-0.2609,-0.4779,49.25981263,-122.75431582,1.38000000,
9.3580,0.3429,0.5273,0.9551,-0.2505,0.2120,-2.1374,-0.3385,-0.2609,-0.4779,49.25981263,-122.75431582,1.38000000,
9.4070,0.2924,0.5696,0.8603,-0.2505,0.2120,-2.1374,-0.3385,-0.2609,-0.4779,49.25981263,-122.75431582,1.38000000,
9.4110,0.2924,0.5696,0.8603,-0.2505,0.2120,-2.1374,-0.2615,-0.0466,-0.4944,49.25981263,-122.75431582,1.38000000,
9.4130,0.2698,0.6057,0.8338,-0.2505,0.2120,-2.1374,-0.2615,-0.0466,-0.4944,49.25981263,-122.75431582,1.38000000,
9.4290,0.2698,0.6057,0.8338,0.1391,1.0693,2.2454,-0.2615,-0.0466,-0.4944,49.25981263,-122.75431582,1.38000000,
9.4320,0.2873,0.5797,0.9236,0.1391,1.0693,2.2454,-0.2615,-0.0466,-0.4944,49.25981263,-122.75431582,1.38000000,
9.4390,0.4065,0.5201,1.1318,0.1391,1.0693,2.2454,-0.2615,-0.0466,-0.4944,49.25981263,-122.75431582,1.38000000,
9.4770,0.5078,0.4386,1.4420,0.1391,1.0693,2.2454,-0.2615,-0.0466,-0.4944,49.25981263,-122.75431582,1.38000000,
9.4810,0.5078,0.4386,1.4420,0.1391,1.0693,2.2454,-0.5316,-0.4888,-0.4390,49.25981263,-122.75431582,1.38000000,
9.4950,0.4904,0.3878,1.6120,0.1391,1.0693,2.2454,-0.5316,-0.4888,-0.4390,49.25981263,-122.75431582,1.38000000,
9.4980,0.3601,0.3584,1.2911,0.1391,1.0693,2.2454,-0.5316,-0.4888,-0.4390,49.25981263,-122.75431582,1.38000000,
9.5010,0.3601,0.3584,1.2911,-1.1424,1.7016,0.7990,-0.5316,-0.4888,-0.4390,49.25981263,-122.75431582,1.38000000,
9.5500,0.3300,0.3144,0.9817,-1.1424,1.7016,0.7990,-0.5316,-0.4888,-0.4390,49.25981263,-122.75431582,1.38000000,
9.5540,0.3300,0.3144,0.9817,-1.1424,1.7016,0.7990,0.2948,-0.1257,-0.2307,49.25981263,-122.75431582,1.38000000,
9.5560,0.4573,0.2932,1.0158,-1.1424,1.7016,0.7990,0.2948,-0.1257,-0.2307,49.25981263,-122.75431582,1.38000000,
9.5700,0.4573,0.2932,1.0158,0.2568,-0.0753,5.8558,0.2948,-0.1257,-0.2307,49.25981263,-122.75431582,1.38000000,
9.5730,0.5568,0.2784,1.2128,0.2568,-0.0753,5.8558,0.2948,-0.1257,-0.2307,49.25981263,-122.75431582,1.38000000,
9.6190,0.5024,0.2703,1.1983,0.2568,-0.0753,5.8558,0.2948,-0.1257,-0.2307,49.25981263,-122.75431582,1.38000000,
9.6230,0.3956,0.2987,0.9888,0.2568,-0.0753,5.8558,0.2948,-0.1257,-0.2307,49.25981263,-122.75431582,1.38000000,
9.6240,0.3956,0.2987,0.9888,0.2568,-0.0753,5.8558,-0.0570,0.3649,-0.0373,49.25981263,-122.75431582,1.38000000,
9.6390,0.2944,0.3245,0.7772,0.2568,-0.0753,5.8558,-0.0570,0.3649,-0.0373,49.25981263,-122.75431582,1.38000000,
9.6420,0.2265,0.3531,0.6082,0.2568,-0.0753,5.8558,-0.0570,0.3649,-0.0373,49.25981263,-122.75431582,1.38000000,
9.6440,0.2265,0.3531,0.6082,0.6238,-1.2575,2.5542,-0.0570,0.3649,-0.0373,49.25981263,-122.75431582,1.38000000,
9.6910,0.1728,0.3716,0.4679,0.6238,-1.2575,2.5542,-0.0570,0.3649,-0.0373,49.25981263,-122.75431582,1.38000000,
9.6940,0.1728,0.3716,0.4679,0.6238,-1.2575,2.5542,0.3612,0.4631,-0.0317,49.25981263,-122.75431582,1.38000000,
9.6950,0.1467,0.4013,0.3316,0.6238,-1.2575,2.5542,0.3612,0.4631,-0.0317,49.25981263,-122.75431582,1.38000000,
9.7070,0.1248,0.4138,0.2767,0.6238,-1.2575,2.5542,0.3612,0.4631,-0.0317,49.25981263,-122.75431582,1.38000000,
9.7120,0.1248,0.4138,0.2767,-0.3670,-1.2020,0.1035,0.3612,0.4631,-0.0317,49.25981263,-122.75431582,1.38000000,
9.7460,0.0666,0.3740,0.3724,-0.3670,-1.2020,0.1035,0.3612,0.4631,-0.0317,49.25981263,-122.75431582,1.38000000,
9.7620,0.0264,0.3260,0.5083,-0.3670,-1.2020,0.1035,0.3612,0.4631,-0.0317,49.25981263,-122.75431582,1.38000000,
9.7640,0.0264,0.3260,0.5083,-0.3670,-1.2020,0.1035,0.2247,0.1110,-0.0926,49.25981263,-122.75431582,1.38000000,
9.7700,0.0459,0.3195,0.6452,-0.3670,-1.2020,0.1035,0.2247,0.1110,-0.0926,49.25981263,-122.75431582,1.38000000,
9.7820,0.1071,0.3403,0.7949,-0.3670,-1.2020,0.1035,0.2247,0.1110,-0.0926,49.25981263,-122.75431582,1.38000000,
9.7840,0.1071,0.3403,0.7949,-2.2011,-0.5762,-4.5380,0.2247,0.1110,-0.0926,49.25981263,-122.75431582,1.38000000,
9.8320,0.1071,0.3403,0.7949,-2.2011,-0.5762,-4.5380,0.5157,0.0757,0.4394,49.25981263,-122.75431582,1.38000000,
9.8340,0.2002,0.3958,0.8294,-2.2011,-0.5762,-4.5380,0.5157,0.0757,0.4394,49.25981404,-122.75433405,1.29999995,
9.8350,0.2653,0.4416,0.8316,-2.2011,-0.5762,-4.5380,0.5157,0.0757,0.4394,49.25981404,-122.75433405,1.29999995,
9.8540,0.2653,0.4416,0.8316,-3.0264,-1.3586,-1.8097,0.5157,0.0757,0.4394,49.25981404,-122.75433405,1.29999995,
9.8570,0.2858,0.4636,0.8790,-3.0264,-1.3586,-1.8097,0.5157,0.0757,0.4394,49.25981404,-122.75433405,1.29999995,
9.9060,0.2969,0.4913,0.9135,-3.0264,-1.3586,-1.8097,0.5157,0.0757,0.4394,49.25981404,-122.75433405,1.29999995,
9.9100,0.2969,0.4913,0.9135,-3.0264,-1.3586,-1.8097,0.4089,0.2734,0.4577,49.25981404,-122.75433405,1.29999995,
9.9130,0.3247,0.5068,0.9052,-3.0264,-1.3586,-1.8097,0.4089,0.2734,0.4577,49.25981404,-122.75433405,1.29999995,
9.9140,0.4204,0.5284,1.0064,-3.0264,-1.3586,-1.8097,0.4089,0.2734,0.4577,49.25981404,-122.75433405,1.29999995,
9.9250,0.4204,0.5284,1.0064,-0.9925,-0.3824,0.5592,0.4089,0.2734,0.4577,49.25981404,-122.75433405,1.29999995,
9.9280,0.4644,0.5386,1.1768,-0.9925,-0.3824,0.5592,0.4089,0.2734,0.4577,49.25981404,-122.75433405,1.29999995,
9.9720,0.3412,0.5219,1.0127,-0.9925,-0.3824,0.5592,0.4089,0.2734,0.4577,49.25981404,-122.75433405,1.29999995,
9.9750,0.2257,0.5371,0.8582,-0.9925,-0.3824,0.5592,0.4089,0.2734,0.4577,49.25981404,-122.75433405,1.29999995,
9.9770,0.2257,0.5371,0.8582,-0.9925,-0.3824,0.5592,0.3132,0.8999,0.1939,49.25981404,-122.75433405,1.29999995,
9.9960,0.2029,0.5679,0.7733,-0.9925,-0.3824,0.5592,0.3132,0.8999,0.1939,49.25981404,-122.75433405,1.29999995,
9.9990,0.2029,0.5679,0.7733,0.7340,0.2903,1.9471,0.3132,0.8999,0.1939,49.25981404,-122.75433405,1.29999995,
10.0390,0.2304,0.5312,0.8017,0.7340,0.2903,1.9471,0.3132,0.8999,0.1939,49.25981404,-122.75433405,1.29999995,
10.0430,0.3090,0.4892,0.9572,0.7340,0.2903,1.9471,0.3132,0.8999,0.1939,49.25981404,-122.75433405,1.29999995,
10.0450,0.3090,0.4892,0.9572,0.7340,0.2903,1.9471,-0.1303,-0.1708,0.1843,49.25981404,-122.75433405,1.29999995,
10.0670,0.3090,0.4892,0.9572,-0.9584,0.6805,0.5382,-0.1303,-0.1708,0.1843,49.25981404,-122.75433405,1.29999995,
10.0710,0.4543,0.4632,1.2408,-0.9584,0.6805,0.5382,-0.1303,-0.1708,0.1843,49.25981404,-122.75433405,1.29999995,
10.0730,0.5953,0.4157,1.4760,-0.9584,0.6805,0.5382,-0.1303,-0.1708,0.1843,49.25981404,-122.75433405,1.29999995,
10.1060,0.6179,0.3269,1.4391,-0.9584,0.6805,0.5382,-0.1303,-0.1708,0.1843,49.25981404,-122.75433405,1.29999995,
10.1160,0.5610,0.2828,1.3987,-0.9584,0.6805,0.5382,-0.1303,-0.1708,0.1843,49.25981404,-122.75433405,1.29999995,
10.1180,0.5610,0.2828,1.3987,-0.9584,0.6805,0.5382,-0.3216,-0.1860,0.0985,49.25981404,-122.75433405,1.29999995,
10.1370,0.5610,0.2828,1.3987,0.8507,0.0335,3.3054,-0.3216,-0.1860,0.0985,49.25981404,-122.75433405,1.29999995,
10.1400,0.4261,0.2800,1.2046,0.8507,0.0335,3.3054,-0.3216,-0.1860,0.0985,49.25981404,-122.75433405,1.29999995,
10.1710,0.2811,0.2935,0.8442,0.8507,0.0335,3.3054,-0.3216,-0.1860,0.0985,49.25981404,-122.75433405,1.29999995,
10.1740,0.1919,0.3192,0.5072,0.8507,0.0335,3.3054,-0.3216,-0.1860,0.0985,49.25981404,-122.75433405,1.29999995,
10.1870,0.1919,0.3192,0.5072,0.8507,0.0335,3.3054,0.6117,0.7603,0.1301,49.25981404,-122.75433405,1.29999995,
10.2090,0.1919,0.3192,0.5072,1.8472,-2.0269,4.5722,0.6117,0.7603,0.1301,49.25981404,-122.75433405,1.29999995,
10.2120,0.1703,0.3619,0.3211,1.8472,-2.0269,4.5722,0.6117,0.7603,0.1301,49.25981404,-122.75433405,1.29999995,
10.2140,0.1308,0.3382,0.2693,1.8472,-2.0269,4.5722,0.6117,0.7603,0.1301,49.25981404,-122.75433405,1.29999995,
10.2400,0.1347,0.3062,0.3357,1.8472,-2.0269,4.5722,0.6117,0.7603,0.1301,49.25981404,-122.75433405,1.29999995,
10.2590,0.1851,0.3049,0.5089,1.8472,-2.0269,4.5722,0.6117,0.7603,0.1301,49.25981404,-122.75433405,1.29999995,
10.2610,0.1851,0.3049,0.5089,1.8472,-2.0269,4.5722,0.6347,-0.3012,-0.1646,49.25981404,-122.75433405,1.29999995,
10.2790,0.1851,0.3049,0.5089,-1.4581,-1.9776,-3.5775,0.6347,-0.3012,-0.1646,49.25981404,-122.75433405,1.29999995,
10.2820,0.2521,0.3453,0.6551,-1.4581,-1.9776,-3.5775,0.6347,-0.3012,-0.1646,49.25981404,-122.75433405,1.29999995,
10.3050,0.2770,0.4081,0.6607,-1.4581,-1.9776,-3.5775,0.6347,-0.3012,-0.1646,49.25981404,-122.75433405,1.29999995,
10.3320,0.2952,0.4582,0.7184,-1.4581,-1.9776,-3.5775,0.6347,-0.3012,-0.1646,49.25981404,-122.75433405,1.29999995,
10.3370,0.2952,0.4582,0.7184,-1.4581,-1.9776,-3.5775,0.4244,-0.3509,-0.2968,49.25981404,-122.75433405,1.29999995,
10.3510,0.2952,0.4582,0.7184,-1.2548,-2.2701,-2.3008,0.4244,-0.3509,-0.2968,49.25981404,-122.75433405,1.29999995,
10.3540,0.3915,0.5312,0.8429,-1.2548,-2.2701,-2.3008,0.4244,-0.3509,-0.2968,49.25981404,-122.75433405,1.29999995,
10.3560,0.4755,0.6140,0.8775,-1.2548,-2.2701,-2.3008,0.4244,-0.3509,-0.2968,49.25981404,-122.75433405,1.29999995,
10.3720,0.4121,0.6122,0.8334,-1.2548,-2.2701,-2.3008,0.4244,-0.3509,-0.2968,49.25981404,-122.75433405,1.29999995,
10.4040,0.3248,0.6005,0.7257,-1.2548,-2.2701,-2.3008,0.4244,-0.3509,-0.2968,49.25981404,-122.75433405,1.29999995,
10.4070,0.3248,0.6005,0.7257,-1.2548,-2.2701,-2.3008,0.1144,-0.5135,-0.7481,49.25981404,-122.75433405,1.29999995,
10.4230,0.3248,0.6005,0.7257,0.4526,-0.5190,0.3641,0.1144,-0.5135,-0.7481,49.25981404,-122.75433405,1.29999995,
10.4260,0.2770,0.5945,0.7135,0.4526,-0.5190,0.3641,0.1144,-0.5135,-0.7481,49.25981404,-122.75433405,1.29999995,
10.4390,0.2960,0.5942,0.8376,0.4526,-0.5190,0.3641,0.1144,-0.5135,-0.7481,49.25981404,-122.75433405,1.29999995,
10.4720,0.2999,0.5489,0.8312,0.4526,-0.5190,0.3641,0.1144,-0.5135,-0.7481,49.25981404,-122.75433405,1.29999995,
10.4750,0.2999,0.5489,0.8312,0.4526,-0.5190,0.3641,-0.6791,-0.6918,-0.8772,49.25981404,-122.75433405,1.29999995,
10.4960,0.3238,0.5004,0.8073,0.4526,-0.5190,0.3641,-0.6791,-0.6918,-0.8772,49.25981404,-122.75433405,1.29999995,
10.5000,0.3866,0.5026,0.8903,0.4526,-0.5190,0.3641,-0.6791,-0.6918,-0.8772,49.25981404,-122.75433405,1.29999995,
10.5020,0.3866,0.5026,0.8903,-0.0052,0.5217,-0.0377,-0.6791,-0.6918,-0.8772,49.25981404,-122.75433405,1.29999995,
10.5440,0.4585,0.4890,0.8897,-0.0052,0.5217,-0.0377,-0.6791,-0.6918,-0.8772,49.25981404,-122.75433405,1.29999995,
10.5480,0.4585,0.4890,0.8897,-0.0052,0.5217,-0.0377,-1.1253,-0.5169,-0.7606,49.25981404,-122.75433405,1.29999995,
10.5500,0.4708,0.4333,0.8609,-0.0052,0.5217,-0.0377,-1.1253,-0.5169,-0.7606,49.25981404,-122.75433405,1.29999995,
10.5630,0.4708,0.4333,0.8609,0.0226,0.2735,0.4345,-1.1253,-0.5169,-0.7606,49.25981404,-122.75433405,1.29999995,
10.5650,0.4971,0.3796,0.8153,0.0226,0.2735,0.4345,-1.1253,-0.5169,-0.7606,49.25981404,-122.75433405,1.29999995,
10.6130,0.5519,0.3436,0.8015,0.0226,0.2735,0.4345,-1.1253,-0.5169,-0.7606,49.25981404,-122.75433405,1.29999995,
10.6150,0.5519,0.3436,0.8015,0.0226,0.2735,0.4345,-1.2126,-0.7950,-0.4183,49.25981404,-122.75433405,1.29999995,
10.6160,0.6319,0.3285,0.8885,0.0226,0.2735,0.4345,-1.2126,-0.7950,-0.4183,49.25981404,-122.75433405,1.29999995,
10.6350,0.7125,0.3695,0.9933,0.0226,0.2735,0.4345,-1.2126,-0.7950,-0.4183,49.25981404,-122.75433405,1.29999995,
10.6380,0.7125,0.3695,0.9933,1.0882,-0.1826,0.2653,-1.2126,-0.7950,-0.4183,49.25981404,-122.75433405,1.29999995,
10.6410,0.7313,0.4368,0.9768,1.0882,-0.1826,0.2653,-1.2126,-0.7950,-0.4183,49.25981404,-122.75433405,1.29999995,
10.6870,0.7313,0.4368,0.9768,1.0882,-0.1826,0.2653,-0.7963,-0.6178,-0.2599,49.25981404,-122.75433405,1.29999995,
10.6900,0.6799,0.5028,0.8726,1.0882,-0.1826,0.2653,-0.7963,-0.6178,-0.2599,49.25981404,-122.75433405,1.29999995,
10.6920,0.5924,0.5351,0.7403,1.0882,-0.1826,0.2653,-0.7963,-0.6178,-0.2599,49.25981404,-122.75433405,1.29999995,
10.7060,0.4697,0.5331,0.5978,1.0882,-0.1826,0.2653,-0.7963,-0.6178,-0.2599,49.25981404,-122.75433405,1.29999995,
10.7090,0.4697,0.5331,0.5978,2.7170,-0.3873,1.0386,-0.7963,-0.6178,-0.2599,49.25981404,-122.75433405,1.29999995,
10.7440,0.3383,0.5228,0.4666,2.7170,-0.3873,1.0386,-0.7963,-0.6178,-0.2599,49.25981404,-122.75433405,1.29999995,
10.7470,0.2491,0.5271,0.4228,2.7170,-0.3873,1.0386,-0.7963,-0.6178,-0.2599,49.25981404,-122.75433405,1.29999995,
10.7570,0.2491,0.5271,0.4228,2.7170,-0.3873,1.0386,-0.4467,-0.6304,-0.6272,49.25981404,-122.75433405,1.29999995,
10.7710,0.2386,0.5611,0.4540,2.7170,-0.3873,1.0386,-0.4467,-0.6304,-0.6272,49.25981404,-122.75433405,1.29999995,
10.7770,0.2386,0.5611,0.4540,1.2473,1.0859,-1.0889,-0.4467,-0.6304,-0.6272,49.25981404,-122.75433405,1.29999995,
10.7790,0.2004,0.5600,0.5081,1.2473,1.0859,-1.0889,-0.4467,-0.6304,-0.6272,49.25981404,-122.75433405,1.29999995,
10.8280,0.1545,0.5355,0.5505,1.2473,1.0859,-1.0889,-0.4467,-0.6304,-0.6272,49.25981404,-122.75433405,1.29999995,
10.8300,0.1545,0.5355,0.5505,1.2473,1.0859,-1.0889,-0.2275,-0.7154,-0.8223,49.25981404,-122.75433405,1.29999995,
10.8310,0.1323,0.5328,0.6139,1.2473,1.0859,-1.0889,-0.2275,-0.7154,-0.8223,49.25981404,-122.75433405,1.29999995,
10.8380,0.1013,0.5278,0.7148,1.2473,1.0859,-1.0889,-0.2275,-0.7154,-0.8223,49.25981404,-122.75433405,1.29999995,
10.8470,0.1013,0.5278,0.7148,-1.8350,1.1789,-3.3273,-0.2275,-0.7154,-0.8223,49.25980965,-122.75435249,1.46000004,
10.9000,0.0904,0.5403,0.8225,-1.8350,1.1789,-3.3273,-0.2275,-0.7154,-0.8223,49.25980965,-122.75435249,1.46000004,
10.9030,0.0904,0.5403,0.8225,-1.8350,1.1789,-3.3273,-0.1085,-0.2446,-0.5580,49.25980965,-122.75435249,1.46000004,
10.9050,0.1305,0.5765,0.9194,-1.8350,1.1789,-3.3273,-0.1085,-0.2446,-0.5580,49.25980965,-122.75435249,1.46000004,
10.9070,0.1964,0.6186,0.9399,-1.8350,1.1789,-3.3273,-0.1085,-0.2446,-0.5580,49.25980965,-122.75435249,1.46000004,
10.9200,0.1964,0.6186,0.9399,-2.8625,0.9243,-1.4084,-0.1085,-0.2446,-0.5580,49.25980965,-122.75435249,1.46000004,
10.9230,0.2481,0.6469,0.9231,-2.8625,0.9243,-1.4084,-0.1085,-0.2446,-0.5580,49.25980965,-122.75435249,1.46000004,
10.9700,0.3023,0.6732,0.9895,-2.8625,0.9243,-1.4084,-0.1085,-0.2446,-0.5580,49.25980965,-122.75435249,1.46000004,
10.9730,0.3101,0.6916,0.9733,-2.8625,0.9243,-1.4084,-0.1085,-0.2446,-0.5580,49.25980965,-122.75435249,1.46000004,
10.9750,0.3101,0.6916,0.9733,-2.8625,0.9243,-1.4084,-0.1185,0.3721,-0.3293,49.25980965,-122.75435249,1.46000004,
10.9900,0.3101,0.6916,0.9733,-1.9941,1.6012,1.0444,-0.1185,0.3721,-0.3293,49.25980965,-122.75435249,1.46000004,
10.9930,0.3441,0.7119,0.9162,-1.9941,1.6012,1.0444,-0.1185,0.3721,-0.3293,49.25980965,-122.75435249,1.46000004,
11.0390,0.5360,0.7301,1.0197,-1.9941,1.6012,1.0444,-0.1185,0.3721,-0.3293,49.25980965,-122.75435249,1.46000004,
11.0420,0.7337,0.6791,1.2760,-1.9941,1.6012,1.0444,-0.1185,0.3721,-0.3293,49.25980965,-122.75435249,1.46000004,
11.0450,0.7337,0.6791,1.2760,-1.9941,1.6012,1.0444,-0.1048,-0.1790,-0.3676,49.25980965,-122.75435249,1.46000004,
11.0610,0.8267,0.5497,1.5110,-1.9941,1.6012,1.0444,-0.1048,-0.1790,-0.3676,49.25980965,-122.75435249,1.46000004,
11.0640,0.8123,0.4462,1.4008,-1.9941,1.6012,1.0444,-0.1048,-0.1790,-0.3676,49.25980965,-122.75435249,1.46000004,
11.0660,0.8123,0.4462,1.4008,-0.3122,2.3664,1.4889,-0.1048,-0.1790,-0.3676,49.25980965,-122.75435249,1.46000004,
11.1060,0.7666,0.4539,1.0602,-0.3122,2.3664,1.4889,-0.1048,-0.1790,-0.3676,49.25980965,-122.75435249,1.46000004,
11.1090,0.6824,0.4560,0.8514,-0.3122,2.3664,1.4889,-0.1048,-0.1790,-0.3676,49.25980965,-122.75435249,1.46000004,
11.1100,0.6824,0.4560,0.8514,-0.3122,2.3664,1.4889,0.0871,0.5298,-0.5382,49.25980965,-122.75435249,1.46000004,
11.1310,0.5789,0.4160,0.7257,-0.3122,2.3664,1.4889,0.0871,0.5298,-0.5382,49.25980965,-122.75435249,1.46000004,
11.1350,0.5789,0.4160,0.7257,4.2617,1.0949,5.0373,0.0871,0.5298,-0.5382,49.25980965,-122.75435249,1.46000004,
11.1720,0.4021,0.3158,0.6701,4.2617,1.0949,5.0373,0.0871,0.5298,-0.5382,49.25980965,-122.75435249,1.46000004,
11.1750,0.2761,0.2709,0.6280,4.2617,1.0949,5.0373,0.0871,0.5298,-0.5382,49.25980965,-122.75435249,1.46000004,
11.1830,0.2761,0.2709,0.6280,4.2617,1.0949,5.0373,-0.1776,0.5913,-0.4823,49.25980965,-122.75435249,1.46000004,
11.2050,0.2761,0.2709,0.6280,3.4503,-0.4714,0.0347,-0.1776,0.5913,-0.4823,49.25980965,-122.75435249,1.46000004,
11.2080,0.2152,0.3077,0.5338,3.4503,-0.4714,0.0347,-0.1776,0.5913,-0.4823,49.25980965,-122.75435249,1.46000004,
11.2090,0.2078,0.3903,0.3848,3.4503,-0.4714,0.0347,-0.1776,0.5913,-0.4823,49.25980965,-122.75435249,1.46000004,
11.2380,0.2390,0.4584,0.3118,3.4503,-0.4714,0.0347,-0.1776,0.5913,-0.4823,49.25980965,-122.75435249,1.46000004,
11.2540,0.2591,0.4689,0.4402,3.4503,-0.4714,0.0347,-0.1776,0.5913,-0.4823,49.25980965,-122.75435249,1.46000004,
11.2570,0.2591,0.4689,0.4402,3.4503,-0.4714,0.0347,0.1822,0.0156,-0.3445,49.25980965,-122.75435249,1.46000004,
11.2740,0.2591,0.4689,0.4402,-0.2757,-1.6888,-2.9285,0.1822,0.0156,-0.3445,49.25980965,-122.75435249,1.46000004,
11.2780,0.2075,0.4510,0.5828,-0.2757,-1.6888,-2.9285,0.1822,0.0156,-0.3445,49.25980965,-122.75435249,1.46000004,
11.3060,0.1913,0.4863,0.5984,-0.2757,-1.6888,-2.9285,0.1822,0.0156,-0.3445,49.25980965,-122.75435249,1.46000004,
11.3090,0.1937,0.5581,0.5500,-0.2757,-1.6888,-2.9285,0.1822,0.0156,-0.3445,49.25980965,-122.75435249,1.46000004,
11.3260,0.1937,0.5581,0.5500,-0.2757,-1.6888,-2.9285,0.2832,-0.0264,-0.5389,49.25980965,-122.75435249,1.46000004,
11.3460,0.1937,0.5581,0.5500,-0.3909,-0.5663,-3.4001,0.2832,-0.0264,-0.5389,49.25980965,-122.75435249,1.46000004,
11.3500,0.1361,0.5791,0.5543,-0.3909,-0.5663,-3.4001,0.2832,-0.0264,-0.5389,49.25980965,-122.75435249,1.46000004,
11.3510,0.1162,0.5973,0.6696,-0.3909,-0.5663,-3.4001,0.2832,-0.0264,-0.5389,49.25980965,-122.75435249,1.46000004,
11.3720,0.1776,0.6572,0.7667,-0.3909,-0.5663,-3.4001,0.2832,-0.0264,-0.5389,49.25980965,-122.75435249,1.46000004,
11.3950,0.1776,0.6572,0.7667,-0.3909,-0.5663,-3.4001,0.1905,-0.4434,-0.3779,49.25980965,-122.75435249,1.46000004,
11.3970,0.2041,0.6911,0.8006,-0.3909,-0.5663,-3.4001,0.1905,-0.4434,-0.3779,49.25980965,-122.75435249,1.46000004,
11.4160,0.1882,0.6951,0.8076,-0.3909,-0.5663,-3.4001,0.1905,-0.4434,-0.3779,49.25980965,-122.75435249,1.46000004,
11.4190,0.1882,0.6951,0.8076,-1.2466,0.3668,-2.0383,0.1905,-0.4434,-0.3779,49.25980965,-122.75435249,1.46000004,
11.4390,0.1653,0.6929,0.8216,-1.2466,0.3668,-2.0383,0.1905,-0.4434,-0.3779,49.25980965,-122.75435249,1.46000004,
11.4680,0.1653,0.6929,0.8216,-1.2466,0.3668,-2.0383,-0.2439,-0.7135,0.0026,49.25980965,-122.75435249,1.46000004,
11.4710,0.2196,0.7022,0.8558,-1.2466,0.3668,-2.0383,-0.2439,-0.7135,0.0026,49.25980965,-122.75435249,1.46000004,
11.4880,0.2196,0.7022,0.8558,-1.4430,1.6740,0.0385,-0.2439,-0.7135,0.0026,49.25980965,-122.75435249,1.46000004,
11.4930,0.3352,0.7125,1.0176,-1.4430,1.6740,0.0385,-0.2439,-0.7135,0.0026,49.25980965,-122.75435249,1.46000004,
11.4960,0.5537,0.6956,1.2138,-1.4430,1.6740,0.0385,-0.2439,-0.7135,0.0026,49.25980965,-122.75435249,1.46000004,
11.5390,0.7915,0.6776,1.3271,-1.4430,1.6740,0.0385,-0.2439,-0.7135,0.0026,49.25980965,-122.75435249,1.46000004,
11.5420,0.7915,0.6776,1.3271,-1.4430,1.6740,0.0385,0.0650,-0.9913,0.0406,49.25980965,-122.75435249,1.46000004,
11.5440,0.9457,0.6766,1.1997,-1.4430,1.6740,0.0385,0.0650,-0.9913,0.0406,49.25980965,-122.75435249,1.46000004,
11.5580,0.9457,0.6766,1.1997,-0.2675,1.6770,2.2532,0.0650,-0.9913,0.0406,49.25980965,-122.75435249,1.46000004,
11.5620,0.9291,0.6048,0.8610,-0.2675,1.6770,2.2532,0.0650,-0.9913,0.0406,49.25980965,-122.75435249,1.46000004,
11.5710,0.7984,0.4891,0.6099,-0.2675,1.6770,2.2532,0.0650,-0.9913,0.0406,49.25980965,-122.75435249,1.46000004,
11.6080,0.7984,0.4891,0.6099,-0.2675,1.6770,2.2532,-0.2644,-0.4022,-0.7921,49.25980965,-122.75435249,1.46000004,
11.6110,0.6909,0.3719,0.5020,-0.2675,1.6770,2.2532,-0.2644,-0.4022,-0.7921,49.25980965,-122.75435249,1.46000004,
11.6310,0.6909,0.3719,0.5020,4.9342,1.0787,2.7558,-0.2644,-0.4022,-0.7921,49.25980965,-122.75435249,1.46000004,
11.6350,0.6203,0.2692,0.5182,4.9342,1.0787,2.7558,-0.2644,-0.4022,-0.7921,49.25980965,-122.75435249,1.46000004,
11.6370,0.5388,0.2012,0.6208,4.9342,1.0787,2.7558,-0.2644,-0.4022,-0.7921,49.25980965,-122.75435249,1.46000004,
11.6800,0.4809,0.2031,0.7527,4.9342,1.0787,2.7558,-0.2644,-0.4022,-0.7921,49.25980965,-122.75435249,1.46000004,
11.6840,0.4412,0.2632,0.8063,4.9342,1.0787,2.7558,-0.2644,-0.4022,-0.7921,49.25980965,-122.75435249,1.46000004,
11.6920,0.4412,0.2632,0.8063,4.9342,1.0787,2.7558,-1.0047,-0.8660,-0.6237,49.25980965,-122.75435249,1.46000004,
11.6990,0.3523,0.3303,0.7433,4.9342,1.0787,2.7558,-1.0047,-0.8660,-0.6237,49.25980965,-122.75435249,1.46000004,
11.7030,0.3523,0.3303,0.7433,2.3053,-1.7027,-2.3678,-1.0047,-0.8660,-0.6237,49.25980965,-122.75435249,1.46000004,
11.7430,0.2465,0.3813,0.6011,2.3053,-1.7027,-2.3678,-1.0047,-0.8660,-0.6237,49.25980965,-122.75435249,1.46000004,
11.7460,0.1570,0.4195,0.4858,2.3053,-1.7027,-2.3678,-1.0047,-0.8660,-0.6237,49.25980965,-122.75435249,1.46000004,
11.7500,0.1570,0.4195,0.4858,2.3053,-1.7027,-2.3678,-0.6601,-0.4255,-0.3664,49.25980965,-122.75435249,1.46000004,
11.7860,0.0893,0.4493,0.4091,2.3053,-1.7027,-2.3678,-0.6601,-0.4255,-0.3664,49.25980965,-122.75435249,1.46000004,
11.7870,0.0446,0.4860,0.3839,2.3053,-1.7027,-2.3678,-0.6601,-0.4255,-0.3664,49.25980965,-122.75435249,1.46000004,
11.7880,0.0446,0.4860,0.3839,-0.1402,-1.7271,-0.4564,-0.6601,-0.4255,-0.3664,49.25980965,-122.75435249,1.46000004,
11.8220,0.0252,0.5177,0.4362,-0.1402,-1.7271,-0.4564,-0.6601,-0.4255,-0.3664,49.25980965,-122.75435249,1.46000004,
11.8230,0.0252,0.5177,0.4362,-0.1402,-1.7271,-0.4564,-0.5126,-0.3289,-0.3609,49.25980965,-122.75435249,1.46000004,
11.8240,0.0078,0.5284,0.5331,-0.1402,-1.7271,-0.4564,-0.5126,-0.3289,-0.3609,49.25980965,-122.75435249,1.46000004,
11.8370,0.0016,0.5381,0.6697,-0.1402,-1.7271,-0.4564,-0.5126,-0.3289,-0.3609,49.25980965,-122.75435249,1.46000004,
11.8410,0.0016,0.5381,0.6697,-2.8699,0.0879,-3.5033,-0.5126,-0.3289,-0.3609,49.25980918,-122.75437405,1.42999995,
11.8920,-0.0121,0.5230,0.8831,-2.8699,0.0879,-3.5033,-0.5126,-0.3289,-0.3609,49.25980918,-122.75437405,1.42999995,
11.8950,-0.0121,0.5230,0.8831,-2.8699,0.0879,-3.5033,-0.2445,0.0976,-0.0980,49.25980918,-122.75437405,1.42999995,
11.8960,-0.0001,0.5481,0.9767,-2.8699,0.0879,-3.5033,-0.2445,0.0976,-0.0980,49.25980918,-122.75437405,1.42999995,
11.9040,0.0645,0.6285,1.0205,-2.8699,0.0879,-3.5033,-0.2445,0.0976,-0.0980,49.25980918,-122.75437405,1.42999995,
11.9130,0.1208,0.7020,1.0192,-2.8699,0.0879,-3.5033,-0.2445,0.0976,-0.0980,49.25980918,-122.75437405,1.42999995,
11.9160,0.1208,0.7020,1.0192,-3.8294,0.8882,-2.0806,-0.2445,0.0976,-0.0980,49.25980918,-122.75437405,1.42999995,
11.9650,0.1191,0.7422,0.9824,-3.8294,0.8882,-2.0806,-0.2445,0.0976,-0.0980,49.25980918,-122.75437405,1.42999995,
11.9680,0.1191,0.7422,0.9824,-3.8294,0.8882,-2.0806,0.1797,0.3072,0.2343,49.25980918,-122.75437405,1.42999995,
11.9700,0.1228,0.7076,0.9995,-3.8294,0.8882,-2.0806,0.1797,0.3072,0.2343,49.25980918,-122.75437405,1.42999995,
11.9860,0.1963,0.6314,1.1734,-3.8294,0.8882,-2.0806,0.1797,0.3072,0.2343,49.25980918,-122.75437405,1.42999995,
11.9880,0.1963,0.6314,1.1734,-3.2176,1.7368,1.7671,0.1797,0.3072,0.2343,49.25980918,-122.75437405,1.42999995,
12.0350,0.2508,0.5627,1.4505,-3.2176,1.7368,1.7671,0.1797,0.3072,0.2343,49.25980918,-122.75437405,1.42999995,
12.0380,0.2362,0.5291,1.5898,-3.2176,1.7368,1.7671,0.1797,0.3072,0.2343,49.25980918,-122.75437405,1.42999995,
12.0400,0.2362,0.5291,1.5898,-3.2176,1.7368,1.7671,0.1873,1.0588,0.6602,49.25980918,-122.75437405,1.42999995,
12.0410,0.2405,0.5991,1.2680,-3.2176,1.7368,1.7671,0.1873,1.0588,0.6602,49.25980918,-122.75437405,1.42999995,
12.0560,0.2405,0.5991,1.2680,-1.5008,2.3147,2.5086,0.1873,1.0588,0.6602,49.25980918,-122.75437405,1.42999995,
12.0590,0.1378,0.5354,1.0103,-1.5008,2.3147,2.5086,0.1873,1.0588,0.6602,49.25980918,-122.75437405,1.42999995,
12.1060,0.0456,0.3921,1.0503,-1.5008,2.3147,2.5086,0.1873,1.0588,0.6602,49.25980918,-122.75437405,1.42999995,
12.1090,0.1213,0.3347,0.9905,-1.5008,2.3147,2.5086,0.1873,1.0588,0.6602,49.25980918,-122.75437405,1.42999995,
12.1110,0.1213,0.3347,0.9905,-1.5008,2.3147,2.5086,0.7916,1.4296,1.2249,49.25980918,-122.75437405,1.42999995,
12.1270,0.1213,0.3347,0.9905,-0.9475,0.8749,4.7160,0.7916,1.4296,1.2249,49.25980918,-122.75437405,1.42999995,
12.1290,0.4408,0.3653,0.9750,-0.9475,0.8749,4.7160,0.7916,1.4296,1.2249,49.25980918,-122.75437405,1.42999995,
12.1770,0.6716,0.3500,1.3513,-0.9475,0.8749,4.7160,0.7916,1.4296,1.2249,49.25980918,-122.75437405,1.42999995,
12.1800,0.6278,0.2188,1.5902,-0.9475,0.8749,4.7160,0.7916,1.4296,1.2249,49.25980918,-122.75437405,1.42999995,
12.1820,0.6278,0.2188,1.5902,-0.9475,0.8749,4.7160,0.5685,0.1850,1.0185,49.25980918,-122.75437405,1.42999995,
12.1990,0.6278,0.2188,1.5902,-0.3252,-1.0182,1.9361,0.5685,0.1850,1.0185,49.25980918,-122.75437405,1.42999995,
12.2020,0.5149,0.1721,1.3786,-0.3252,-1.0182,1.9361,0.5685,0.1850,1.0185,49.25980918,-122.75437405,1.42999995,
12.2040,0.4488,0.1956,1.1117,-0.3252,-1.0182,1.9361,0.5685,0.1850,1.0185,49.25980918,-122.75437405,1.42999995,
12.2430,0.3512,0.1711,0.9512,-0.3252,-1.0182,1.9361,0.5685,0.1850,1.0185,49.25980918,-122.75437405,1.42999995,
12.2470,0.2586,0.1563,0.7849,-0.3252,-1.0182,1.9361,0.5685,0.1850,1.0185,49.25980918,-122.75437405,1.42999995,
12.2490,0.2586,0.1563,0.7849,-0.3252,-1.0182,1.9361,0.5727,1.2028,0.9397,49.25980918,-122.75437405,1.42999995,
12.2690,0.2194,0.1814,0.5677,-0.3252,-1.0182,1.9361,0.5727,1.2028,0.9397,49.25980918,-122.75437405,1.42999995,
12.2710,0.2194,0.1814,0.5677,2.8247,-2.7050,5.1164,0.5727,1.2028,0.9397,49.25980918,-122.75437405,1.42999995,
12.3180,0.2393,0.2410,0.3779,2.8247,-2.7050,5.1164,0.5727,1.2028,0.9397,49.25980918,-122.75437405,1.42999995,
12.3190,0.2393,0.2410,0.3779,2.8247,-2.7050,5.1164,0.8441,1.1068,0.7736,49.25980918,-122.75437405,1.42999995,
12.3200,0.2233,0.2901,0.2520,2.8247,-2.7050,5.1164,0.8441,1.1068,0.7736,49.25980918,-122.75437405,1.42999995,
12.3320,0.1563,0.2848,0.2729,2.8247,-2.7050,5.1164,0.8441,1.1068,0.7736,49.25980918,-122.75437405,1.42999995,
12.3400,0.1563,0.2848,0.2729,0.3589,-3.3568,-1.1665,0.8441,1.1068,0.7736,49.25980918,-122.75437405,1.42999995,
12.3410,0.1105,0.2757,0.3777,0.3589,-3.3568,-1.1665,0.8441,1.1068,0.7736,49.25980918,-122.75437405,1.42999995,
12.3900,0.1105,0.2757,0.3777,0.3589,-3.3568,-1.1665,0.7429,0.4228,0.5583,49.25980918,-122.75437405,1.42999995,
12.3940,0.1632,0.3381,0.4190,0.3589,-3.3568,-1.1665,0.7429,0.4228,0.5583,49.25980918,-122.75437405,1.42999995,
12.3960,0.2249,0.4400,0.4622,0.3589,-3.3568,-1.1665,0.7429,0.4228,0.5583,49.25980918,-122.75437405,1.42999995,
12.4010,0.2495,0.5042,0.5299,0.3589,-3.3568,-1.1665,0.7429,0.4228,0.5583,49.25980918,-122.75437405,1.42999995,
12.4110,0.2495,0.5042,0.5299,-0.6357,-2.6255,-4.8885,0.7429,0.4228,0.5583,49.25980918,-122.75437405,1.42999995,
12.4620,0.3114,0.5305,0.6518,-0.6357,-2.6255,-4.8885,0.7429,0.4228,0.5583,49.25980918,-122.75437405,1.42999995,
12.4650,0.3114,0.5305,0.6518,-0.6357,-2.6255,-4.8885,0.5180,-0.4214,0.3499,49.25980918,-122.75437405,1.42999995,
12.4680,0.4242,0.5598,0.7860,-0.6357,-2.6255,-4.8885,0.5180,-0.4214,0.3499,49.25980918,-122.75437405,1.42999995,
12.4690,0.4642,0.5841,0.8266,-0.6357,-2.6255,-4.8885,0.5180,-0.4214,0.3499,49.25980918,-122.75437405,1.42999995,
12.4820,0.4642,0.5841,0.8266,-0.5367,-1.1964,-2.7782,0.5180,-0.4214,0.3499,49.25980918,-122.75437405,1.42999995,
12.4860,0.3715,0.5850,0.6398,-0.5367,-1.1964,-2.7782,0.5180,-0.4214,0.3499,49.25980918,-122.75437405,1.42999995,
12.5330,0.2954,0.6342,0.4380,-0.5367,-1.1964,-2.7782,0.5180,-0.4214,0.3499,49.25980918,-122.75437405,1.42999995,
12.5370,0.2954,0.6342,0.4380,-0.5367,-1.1964,-2.7782,-0.3651,-0.6429,0.3401,49.25980918,-122.75437405,1.42999995,
12.5390,0.3195,0.6756,0.4549,-0.5367,-1.1964,-2.7782,-0.3651,-0.6429,0.3401,49.25980918,-122.75437405,1.42999995,
12.5530,0.3195,0.6756,0.4549,0.5760,0.5626,-0.3963,-0.3651,-0.6429,0.3401,49.25980918,-122.75437405,1.42999995,
12.5560,0.4552,0.6647,0.6631,0.5760,0.5626,-0.3963,-0.3651,-0.6429,0.3401,49.25980918,-122.75437405,1.42999995,
12.6010,0.6396,0.6596,0.9341,0.5760,0.5626,-0.3963,-0.3651,-0.6429,0.3401,49.25980918,-122.75437405,1.42999995,
12.6050,0.6789,0.5652,1.2553,0.5760,0.5626,-0.3963,-0.3651,-0.6429,0.3401,49.25980918,-122.75437405,1.42999995,
12.6070,0.6789,0.5652,1.2553,0.5760,0.5626,-0.3963,-1.5043,-1.1554,0.1281,49.25980918,-122.75437405,1.42999995,
12.6250,0.6789,0.5652,1.2553,-0.0000,2.1938,-2.3385,-1.5043,-1.1554,0.1281,49.25980918,-122.75437405,1.42999995,
12.6280,0.5641,0.4223,1.5824,-0.0000,2.1938,-2.3385,-1.5043,-1.1554,0.1281,49.25980918,-122.75437405,1.42999995,
12.6300,0.4331,0.3325,1.6889,-0.0000,2.1938,-2.3385,-1.5043,-1.1554,0.1281,49.25980918,-122.75437405,1.42999995,
12.6680,0.3975,0.3143,1.5250,-0.0000,2.1938,-2.3385,-1.5043,-1.1554,0.1281,49.25980918,-122.75437405,1.42999995,
12.6710,0.4443,0.3468,1.3125,-0.0000,2.1938,-2.3385,-1.5043,-1.1554,0.1281,49.25980918,-122.75437405,1.42999995,
12.6730,0.4443,0.3468,1.3125,-0.0000,2.1938,-2.3385,-0.3473,-0.4524,0.1135,49.25980918,-122.75437405,1.42999995,
12.6960,0.4517,0.3750,1.1315,-0.0000,2.1938,-2.3385,-0.3473,-0.4524,0.1135,49.25980918,-122.75437405,1.42999995,
12.6990,0.4517,0.3750,1.1315,1.4417,0.4086,6.2117,-0.3473,-0.4524,0.1135,49.25980918,-122.75437405,1.42999995,
12.7340,0.3919,0.3860,0.9699,1.4417,0.4086,6.2117,-0.3473,-0.4524,0.1135,49.25980918,-122.75437405,1.42999995,
12.7370,0.3236,0.3997,0.7958,1.4417,0.4086,6.2117,-0.3473,-0.4524,0.1135,49.25980918,-122.75437405,1.42999995,
12.7480,0.3236,0.3997,0.7958,1.4417,0.4086,6.2117,0.1341,-0.1209,0.0637,49.25980918,-122.75437405,1.42999995,
12.7650,0.3236,0.3997,0.7958,0.0182,-0.8547,4.6217,0.1341,-0.1209,0.0637,49.25980918,-122.75437405,1.42999995,
12.7680,0.2581,0.4021,0.6162,0.0182,-0.8547,4.6217,0.1341,-0.1209,0.0637,49.25980918,-122.75437405,1.42999995,
12.7690,0.1846,0.3886,0.4731,0.0182,-0.8547,4.6217,0.1341,-0.1209,0.0637,49.25980918,-122.75437405,1.42999995,
12.8000,0.1165,0.3660,0.3394,0.0182,-0.8547,4.6217,0.1341,-0.1209,0.0637,49.25980918,-122.75437405,1.42999995,
12.8180,0.0635,0.3434,0.2425,0.0182,-0.8547,4.6217,0.1341,-0.1209,0.0637,49.25980918,-122.75437405,1.42999995,
12.8200,0.0635,0.3434,0.2425,0.0182,-0.8547,4.6217,0.1356,0.1227,-0.2378,49.25980918,-122.75437405,1.42999995,
12.8410,0.0635,0.3434,0.2425,-1.3466,-0.4905,-1.3316,0.1356,0.1227,-0.2378,49.25980918,-122.75437405,1.42999995,
12.8430,0.0355,0.3212,0.2185,-1.3466,-0.4905,-1.3316,0.1356,0.1227,-0.2378,49.25981408,-122.75439279,1.32000005,
12.8690,0.0380,0.3193,0.3027,-1.3466,-0.4905,-1.3316,0.1356,0.1227,-0.2378,49.25981408,-122.75439279,1.32000005,
12.8890,0.0330,0.3107,0.4162,-1.3466,-0.4905,-1.3316,0.1356,0.1227,-0.2378,49.25981408,-122.75439279,1.32000005,
12.8920,0.0330,0.3107,0.4162,-1.3466,-0.4905,-1.3316,-0.3418,-0.0491,-0.1063,49.25981408,-122.75439279,1.32000005,
12.9090,0.0738,0.3484,0.5676,-1.3466,-0.4905,-1.3316,-0.3418,-0.0491,-0.1063,49.25981408,-122.75439279,1.32000005,
12.9120,0.0738,0.3484,0.5676,-3.3557,-0.7849,-5.2815,-0.3418,-0.0491,-0.1063,49.25981408,-122.75439279,1.32000005,
12.9140,0.1196,0.3882,0.7601,-3.3557,-0.7849,-5.2815,-0.3418,-0.0491,-0.1063,49.25981408,-122.75439279,1.32000005,
12.9340,0.1941,0.4551,0.9890,-3.3557,-0.7849,-5.2815,-0.3418,-0.0491,-0.1063,49.25981408,-122.75439279,1.32000005,
12.9590,0.2299,0.5032,1.1326,-3.3557,-0.7849,-5.2815,-0.3418,-0.0491,-0.1063,49.25981408,-122.75439279,1.32000005,
12.9610,0.2299,0.5032,1.1326,-3.3557,-0.7849,-5.2815,-0.1754,0.1726,0.4186,49.25981408,-122.75439279,1.32000005,
12.9820,0.2299,0.5032,1.1326,-3.2746,-0.6014,-2.6044,-0.1754,0.1726,0.4186,49.25981408,-122.75439279,1.32000005,
12.9850,0.2637,0.5609,1.1228,-3.2746,-0.6014,-2.6044,-0.1754,0.1726,0.4186,49.25981408,-122.75439279,1.32000005,
12.9940,0.3522,0.6245,1.1286,-3.2746,-0.6014,-2.6044,-0.1754,0.1726,0.4186,49.25981408,-122.75439279,1.32000005,
13.0300,0.4698,0.6546,1.3159,-3.2746,-0.6014,-2.6044,-0.1754,0.1726,0.4186,49.25981408,-122.75439279,1.32000005,
13.0330,0.4698,0.6546,1.3159,-3.2746,-0.6014,-2.6044,0.2253,0.2869,0.5299,49.25981408,-122.75439279,1.32000005,
13.0510,0.4698,0.6546,1.3159,-1.3912,1.1207,2.5620,0.2253,0.2869,0.5299,49.25981408,-122.75439279,1.32000005,
13.0550,0.5103,0.6553,1.4958,-1.3912,1.1207,2.5620,0.2253,0.2869,0.5299,49.25981408,-122.75439279,1.32000005,
13.0570,0.4708,0.6502,1.3297,-1.3912,1.1207,2.5620,0.2253,0.2869,0.5299,49.25981408,-122.75439279,1.32000005,
13.1010,0.4708,0.6502,1.3297,-1.3912,1.1207,2.5620,0.1853,0.9176,0.2313,49.25981408,-122.75439279,1.32000005,
13.1050,0.4471,0.6239,1.2289,-1.3912,1.1207,2.5620,0.1853,0.9176,0.2313,49.25981408,-122.75439279,1.32000005,
13.1060,0.3900,0.4940,1.3394,-1.3912,1.1207,2.5620,0.1853,0.9176,0.2313,49.25981408,-122.75439279,1.32000005,
13.1220,0.3300,0.3948,1.4400,-1.3912,1.1207,2.5620,0.1853,0.9176,0.2313,49.25981408,-122.75439279,1.32000005,
13.1250,0.3300,0.3948,1.4400,1.1971,2.2509,4.9369,0.1853,0.9176,0.2313,49.25981408,-122.75439279,1.32000005,
13.1330,0.3438,0.4121,1.2745,1.1971,2.2509,4.9369,0.1853,0.9176,0.2313,49.25981408,-122.75439279,1.32000005,
13.1710,0.4184,0.4474,1.1422,1.1971,2.2509,4.9369,0.1853,0.9176,0.2313,49.25981408,-122.75439279,1.32000005,
13.1750,0.4184,0.4474,1.1422,1.1971,2.2509,4.9369,0.5165,0.4156,0.3847,49.25981408,-122.75439279,1.32000005,
13.1930,0.4184,0.4474,1.1422,0.4463,0.5210,4.7449,0.5165,0.4156,0.3847,49.25981408,-122.75439279,1.32000005,
13.1960,0.4538,0.4325,1.1428,0.4463,0.5210,4.7449,0.5165,0.4156,0.3847,49.25981408,-122.75439279,1.32000005,
13.1980,0.4092,0.3619,1.1420,0.4463,0.5210,4.7449,0.5165,0.4156,0.3847,49.25981408,-122.75439279,1.32000005,
13.2450,0.3333,0.3013,1.1047,0.4463,0.5210,4.7449,0.5165,0.4156,0.3847,49.25981408,-122.75439279,1.32000005,
13.2470,0.3333,0.3013,1.1047,0.4463,0.5210,4.7449,0.3231,0.8318,0.3610,49.25981408,-122.75439279,1.32000005,
13.2500,0.2801,0.2713,0.9835,0.4463,0.5210,4.7449,0.3231,0.8318,0.3610,49.25981408,-122.75439279,1.32000005,
13.2650,0.2801,0.2713,0.9835,1.2226,-0.4445,2.8952,0.3231,0.8318,0.3610,49.25981408,-122.75439279,1.32000005,
13.2680,0.2168,0.2808,0.7430,1.2226,-0.4445,2.8952,0.3231,0.8318,0.3610,49.25981408,-122.75439279,1.32000005,
13.3150,0.1835,0.2945,0.5094,1.2226,-0.4445,2.8952,0.3231,0.8318,0.3610,49.25981408,-122.75439279,1.32000005,
13.3180,0.1835,0.2945,0.5094,1.2226,-0.4445,2.8952,1.0819,0.7151,0.3848,49.25981408,-122.75439279,1.32000005,
13.3190,0.1469,0.3112,0.3751,1.2226,-0.4445,2.8952,1.0819,0.7151,0.3848,49.25981408,-122.75439279,1.32000005,
13.3330,0.1324,0.3305,0.3397,1.2226,-0.4445,2.8952,1.0819,0.7151,0.3848,49.25981408,-122.75439279,1.32000005,
13.3360,0.1175,0.3275,0.3977,1.2226,-0.4445,2.8952,1.0819,0.7151,0.3848,49.25981408,-122.75439279,1.32000005,
13.3380,0.1175,0.3275,0.3977,-0.0689,-2.2701,0.5616,1.0819,0.7151,0.3848,49.25981408,-122.75439279,1.32000005,
13.3860,0.1175,0.3275,0.3977,-0.0689,-2.2701,0.5616,0.9818,0.2916,0.0197,49.25981408,-122.75439279,1.32000005,
13.3900,0.1229,0.3561,0.4995,-0.0689,-2.2701,0.5616,0.9818,0.2916,0.0197,49.25981408,-122.75439279,1.32000005,
13.3920,0.1292,0.4350,0.5079,-0.0689,-2.2701,0.5616,0.9818,0.2916,0.0197,49.25981408,-122.75439279,1.32000005,
13.4000,0.1429,0.5031,0.4671,-0.0689,-2.2701,0.5616,0.9818,0.2916,0.0197,49.25981408,-122.75439279,1.32000005,
13.4060,0.1429,0.5031,0.4671,-1.0946,-2.4062,-4.0408,0.9818,0.2916,0.0197,49.25981408,-122.75439279,1.32000005,
13.4580,0.1501,0.5376,0.6162,-1.0946,-2.4062,-4.0408,0.9818,0.2916,0.0197,49.25981408,-122.75439279,1.32000005,
13.4620,0.1501,0.5376,0.6162,-1.0946,-2.4062,-4.0408,0.6609,-0.3032,-0.3260,49.25981408,-122.75439279,1.32000005,
13.4640,0.1699,0.5250,0.7930,-1.0946,-2.4062,-4.0408,0.6609,-0.3032,-0.3260,49.25981408,-122.75439279,1.32000005,
13.4660,0.2653,0.5557,0.8757,-1.0946,-2.4062,-4.0408,0.6609,-0.3032,-0.3260,49.25981408,-122.75439279,1.32000005,
13.4760,0.2653,0.5557,0.8757,-1.2400,-1.5411,-2.5084,0.6609,-0.3032,-0.3260,49.25981408,-122.75439279,1.32000005,
13.4800,0.3862,0.6405,0.9529,-1.2400,-1.5411,-2.5084,0.6609,-0.3032,-0.3260,49.25981408,-122.75439279,1.32000005,
13.5280,0.3638,0.7021,0.8631,-1.2400,-1.5411,-2.5084,0.6609,-0.3032,-0.3260,49.25981408,-122.75439279,1.32000005,
13.5310,0.3638,0.7021,0.8631,-1.2400,-1.5411,-2.5084,0.2849,-0.0441,-0.3067,49.25981408,-122.75439279,1.32000005,
13.5330,0.1754,0.7296,0.7918,-1.2400,-1.5411,-2.5084,0.2849,-0.0441,-0.3067,49.25981408,-122.75439279,1.32000005,
13.5520,0.1754,0.7296,0.7918,0.0852,-0.4073,0.8764,0.2849,-0.0441,-0.3067,49.25981408,-122.75439279,1.32000005,
13.5550,0.1419,0.7155,0.7725,0.0852,-0.4073,0.8764,0.2849,-0.0441,-0.3067,49.25981408,-122.75439279,1.32000005,
13.5990,0.1419,0.7155,0.7725,0.0852,-0.4073,0.8764,-0.2351,-0.1610,-0.0626,49.25981408,-122.75439279,1.32000005,
13.6030,0.1636,0.6751,0.9791,0.0852,-0.4073,0.8764,-0.2351,-0.1610,-0.0626,49.25981408,-122.75439279,1.32000005,
13.6050,0.2601,0.6237,1.1928,0.0852,-0.4073,0.8764,-0.2351,-0.1610,-0.0626,49.25981408,-122.75439279,1.32000005,
13.6070,0.3415,0.5919,1.2470,0.0852,-0.4073,0.8764,-0.2351,-0.1610,-0.0626,49.25981408,-122.75439279,1.32000005,
13.6190,0.3415,0.5919,1.2470,-0.3236,1.0393,0.6010,-0.2351,-0.1610,-0.0626,49.25981408,-122.75439279,1.32000005,
13.6230,0.3351,0.5917,1.1049,-0.3236,1.0393,0.6010,-0.2351,-0.1610,-0.0626,49.25981408,-122.75439279,1.32000005,
13.6670,0.3346,0.5394,0.9118,-0.3236,1.0393,0.6010,-0.2351,-0.1610,-0.0626,49.25981408,-122.75439279,1.32000005,
13.6700,0.3711,0.4807,0.8498,-0.3236,1.0393,0.6010,-0.2351,-0.1610,-0.0626,49.25981408,-122.75439279,1.32000005,
13.6720,0.3711,0.4807,0.8498,-0.3236,1.0393,0.6010,-0.0726,0.1723,0.0351,49.25981408,-122.75439279,1.32000005,
13.6900,0.3711,0.4807,0.8498,0.4830,0.1842,3.7391,-0.0726,0.1723,0.0351,49.25981408,-122.75439279,1.32000005,
13.6930,0.3872,0.4508,0.9110,0.4830,0.1842,3.7391,-0.0726,0.1723,0.0351,49.25981408,-122.75439279,1.32000005,
13.7340,0.3225,0.4021,0.9006,0.4830,0.1842,3.7391,-0.0726,0.1723,0.0351,49.25981408,-122.75439279,1.32000005,
13.7370,0.2885,0.4152,0.8072,0.4830,0.1842,3.7391,-0.0726,0.1723,0.0351,49.25981408,-122.75439279,1.32000005,
13.7390,0.2885,0.4152,0.8072,0.4830,0.1842,3.7391,-0.4101,0.2489,0.0671,49.25981408,-122.75439279,1.32000005,
13.7440,0.2858,0.4466,0.6827,0.4830,0.1842,3.7391,-0.4101,0.2489,0.0671,49.25981408,-122.75439279,1.32000005,
13.7600,0.2858,0.4466,0.6827,1.2957,-0.9245,0.9145,-0.4101,0.2489,0.0671,49.25981408,-122.75439279,1.32000005,
13.7630,0.2338,0.4465,0.5236,1.2957,-0.9245,0.9145,-0.4101,0.2489,0.0671,49.25981408,-122.75439279,1.32000005,
13.8040,0.1479,0.4177,0.4006,1.2957,-0.9245,0.9145,-0.4101,0.2489,0.0671,49.25981408,-122.75439279,1.32000005,
13.8110,0.1061,0.4046,0.4170,1.2957,-0.9245,0.9145,-0.4101,0.2489,0.0671,49.25981408,-122.75439279,1.32000005,
13.8130,0.1061,0.4046,0.4170,1.2957,-0.9245,0.9145,-0.0276,0.2263,-0.1632,49.25981408,-122.75439279,1.32000005,
13.8330,0.1175,0.4366,0.4190,1.2957,-0.9245,0.9145,-0.0276,0.2263,-0.1632,49.25981408,-122.75439279,1.32000005,
13.8350,0.1175,0.4366,0.4190,0.5972,-1.4320,-0.9556,-0.0276,0.2263,-0.1632,49.25981408,-122.75439279,1.32000005,
13.8680,0.1210,0.4596,0.4241,0.5972,-1.4320,-0.9556,-0.0276,0.2263,-0.1632,49.25981408,-122.75439279,1.32000005,
13.8710,0.1210,0.4721,0.4879,0.5972,-1.4320,-0.9556,-0.0276,0.2263,-0.1632,49.25981840,-122.75441086,1.36000001,
13.8830,0.1210,0.4721,0.4879,0.5972,-1.4320,-0.9556,0.1927,0.1529,-0.2136,49.25981840,-122.75441086,1.36000001,
13.9030,0.1210,0.4721,0.4879,-0.6866,-1.5872,-3.6749,0.1927,0.1529,-0.2136,49.25981840,-122.75441086,1.36000001,
13.9060,0.1267,0.5054,0.5521,-0.6866,-1.5872,-3.6749,0.1927,0.1529,-0.2136,49.25981840,-122.75441086,1.36000001,
13.9080,0.1705,0.5725,0.5934,-0.6866,-1.5872,-3.6749,0.1927,0.1529,-0.2136,49.25981840,-122.75441086,1.36000001,
13.9340,0.1912,0.6298,0.6845,-0.6866,-1.5872,-3.6749,0.1927,0.1529,-0.2136,49.25981840,-122.75441086,1.36000001,
