
time,gFx,gFy,gFz,ax,ay,az,wx,wy,wz,Latitude,Longitude,Speed (m/s),
0.0920,0.0000,0.0000,0.0000,0.0000,0.0000,0.0000,0.0452,0.5195,0.5292,0.00000000,0.00000000,0.00000000,
0.0930,-0.1368,0.3207,1.1772,0.0000,0.0000,0.0000,0.0452,0.5195,0.5292,49.23789369,-123.03210503,0.00000000,
0.0940,-0.1210,0.3264,1.0973,0.0000,0.0000,0.0000,0.0452,0.5195,0.5292,49.23789369,-123.03210503,0.00000000,
0.0940,-0.1015,0.3516,1.0110,0.0000,0.0000,0.0000,0.0452,0.5195,0.5292,49.23789369,-123.03210503,0.00000000,
0.0950,-0.1230,0.3868,0.9152,0.0000,0.0000,0.0000,0.0452,0.5195,0.5292,49.23789369,-123.03210503,0.00000000,
0.0950,-0.1230,0.3868,0.9152,0.0000,0.0000,-0.0000,0.0452,0.5195,0.5292,49.23789369,-123.03210503,0.00000000,
0.1410,-0.1230,0.3868,0.9152,0.0000,0.0000,-0.0000,0.5209,0.2592,0.5065,49.23789369,-123.03210503,0.00000000,
0.1420,-0.1230,0.3868,0.9152,-0.0152,0.0052,-0.8767,0.5209,0.2592,0.5065,49.23789369,-123.03210503,0.00000000,
0.1690,-0.1403,0.3926,0.8607,-0.0152,0.0052,-0.8767,0.5209,0.2592,0.5065,49.23789369,-123.03210503,0.00000000,
0.1700,-0.1176,0.3715,0.8503,-0.0152,0.0052,-0.8767,0.5209,0.2592,0.5065,49.23789369,-123.03210503,0.00000000,
0.1710,-0.0961,0.3462,0.8613,-0.0152,0.0052,-0.8767,0.5209,0.2592,0.5065,49.23789369,-123.03210503,0.00000000,
0.2100,-0.0961,0.3462,0.8613,-0.0152,0.0052,-0.8767,0.0230,0.1546,0.4852,49.23789369,-123.03210503,0.00000000,
0.2100,-0.0961,0.3462,0.8613,0.3278,-0.3263,-0.2883,0.0230,0.1546,0.4852,49.23789369,-123.03210503,0.00000000,
0.2470,-0.0845,0.3393,0.8891,0.3278,-0.3263,-0.2883,0.0230,0.1546,0.4852,49.23789369,-123.03210503,0.00000000,
0.2480,-0.0552,0.3151,0.9192,0.3278,-0.3263,-0.2883,0.0230,0.1546,0.4852,49.23789369,-123.03210503,0.00000000,
0.2480,-0.0254,0.3051,0.9683,0.3278,-0.3263,-0.2883,0.0230,0.1546,0.4852,49.23789369,-123.03210503,0.00000000,
0.2490,-0.0027,0.2928,0.9619,0.3278,-0.3263,-0.2883,0.0230,0.1546,0.4852,49.23789369,-123.03210503,0.00000000,
0.2750,-0.0027,0.2928,0.9619,0.3278,-0.3263,-0.2883,-0.4993,-0.0054,0.4898,49.23789369,-123.03210503,0.00000000,
0.2760,-0.0027,0.2928,0.9619,0.5286,-0.2625,0.1056,-0.4993,-0.0054,0.4898,49.23789369,-123.03210503,0.00000000,
0.3200,-0.0027,0.2928,0.9619,0.5286,-0.2625,0.1056,-0.1927,0.4960,0.5564,49.23789369,-123.03210503,0.00000000,
0.3210,-0.0027,0.2928,0.9619,-0.0780,0.2986,-0.5220,-0.1927,0.4960,0.5564,49.23789369,-123.03210503,0.00000000,
0.3220,-0.0277,0.2841,0.9396,-0.0780,0.2986,-0.5220,-0.1927,0.4960,0.5564,49.23789369,-123.03210503,0.00000000,
0.3230,-0.0754,0.3195,0.9837,-0.0780,0.2986,-0.5220,-0.1927,0.4960,0.5564,49.23789369,-123.03210503,0.00000000,
0.3240,-0.1092,0.3436,0.8836,-0.0780,0.2986,-0.5220,-0.1927,0.4960,0.5564,49.23789369,-123.03210503,0.00000000,
0.3250,-0.1082,0.3703,0.8474,-0.0780,0.2986,-0.5220,-0.1927,0.4960,0.5564,49.23789369,-123.03210503,0.00000000,
0.3700,-0.1082,0.3703,0.8474,-0.0780,0.2986,-0.5220,0.3543,0.0854,0.3964,49.23789369,-123.03210503,0.00000000,
0.3980,-0.0883,0.4101,0.8753,-0.0780,0.2986,-0.5220,0.3543,0.0854,0.3964,49.23789369,-123.03210503,0.00000000,
0.3990,-0.0575,0.4341,0.8530,-0.0780,0.2986,-0.5220,0.3543,0.0854,0.3964,49.23789369,-123.03210503,0.00000000,
0.4000,-0.0735,0.4370,0.8153,-0.0780,0.2986,-0.5220,0.3543,0.0854,0.3964,49.23789369,-123.03210503,0.00000000,
0.4000,-0.0950,0.4412,0.8143,-0.0780,0.2986,-0.5220,0.3543,0.0854,0.3964,49.23789369,-123.03210503,0.00000000,
0.4010,-0.0950,0.4412,0.8143,0.1448,0.6477,-0.7469,0.3543,0.0854,0.3964,49.23789369,-123.03210503,0.00000000,
0.4400,-0.0950,0.4412,0.8143,0.1448,0.6477,-0.7469,0.1265,-0.0611,0.1144,49.23789369,-123.03210503,0.00000000,
0.4420,-0.0950,0.4412,0.8143,0.1656,0.4738,-0.3037,0.1265,-0.0611,0.1144,49.23789369,-123.03210503,0.00000000,
0.4760,-0.0862,0.4280,0.8568,0.1656,0.4738,-0.3037,0.1265,-0.0611,0.1144,49.23789369,-123.03210503,0.00000000,
0.4770,-0.0477,0.4188,0.9074,0.1656,0.4738,-0.3037,0.1265,-0.0611,0.1144,49.23789369,-123.03210503,0.00000000,
0.4780,-0.0007,0.4406,0.9063,0.1656,0.4738,-0.3037,0.1265,-0.0611,0.1144,49.23789369,-123.03210503,0.00000000,
0.4780,0.0401,0.4309,0.8741,0.1656,0.4738,-0.3037,0.1265,-0.0611,0.1144,49.23789369,-123.03210503,0.00000000,
0.5200,0.0401,0.4309,0.8741,0.1656,0.4738,-0.3037,0.2893,-0.0082,0.0262,49.23789369,-123.03210503,0.00000000,
0.5210,0.0401,0.4309,0.8741,1.1795,0.2914,-0.1878,0.2893,-0.0082,0.0262,49.23789369,-123.03210503,0.00000000,
0.5530,0.0401,0.4309,0.8741,1.1795,0.2914,-0.1878,0.3412,-0.0645,-0.5041,49.23789369,-123.03210503,0.00000000,
0.5560,0.0908,0.4218,0.8693,1.1795,0.2914,-0.1878,0.3412,-0.0645,-0.5041,49.23789369,-123.03210503,0.00000000,
0.5570,0.0812,0.4432,0.8740,1.1795,0.2914,-0.1878,0.3412,-0.0645,-0.5041,49.23789369,-123.03210503,0.00000000,
0.5580,0.1083,0.4349,0.8911,1.1795,0.2914,-0.1878,0.3412,-0.0645,-0.5041,49.23789369,-123.03210503,0.00000000,
0.5590,0.0083,0.4535,0.9476,1.1795,0.2914,-0.1878,0.3412,-0.0645,-0.5041,49.23789369,-123.03210503,0.00000000,
0.6020,0.0083,0.4535,0.9476,1.0882,0.2168,0.3777,0.3412,-0.0645,-0.5041,49.23789369,-123.03210503,0.00000000,
0.6310,0.0083,0.4535,0.9476,1.0882,0.2168,0.3777,0.8260,0.2466,-0.6344,49.23789369,-123.03210503,0.00000000,
0.6320,0.0083,0.4535,0.9476,0.7088,-0.2860,1.5883,0.8260,0.2466,-0.6344,49.23789369,-123.03210503,0.00000000,
0.6330,0.0057,0.4151,1.0889,0.7088,-0.2860,1.5883,0.8260,0.2466,-0.6344,49.23789369,-123.03210503,0.00000000,
0.6340,0.0129,0.3923,1.1332,0.7088,-0.2860,1.5883,0.8260,0.2466,-0.6344,49.23789369,-123.03210503,0.00000000,
0.6350,-0.0150,0.4489,0.9934,0.7088,-0.2860,1.5883,0.8260,0.2466,-0.6344,49.23789369,-123.03210503,0.00000000,
0.6360,-0.0205,0.5162,0.8677,0.7088,-0.2860,1.5883,0.8260,0.2466,-0.6344,49.23789369,-123.03210503,0.00000000,
0.6790,-0.0205,0.5162,0.8677,0.7088,-0.2860,1.5883,1.0457,-0.7542,-0.7754,49.23789369,-123.03210503,0.00000000,
0.6810,-0.0205,0.5162,0.8677,0.5108,0.7644,-1.0824,1.0457,-0.7542,-0.7754,49.23789369,-123.03210503,0.00000000,
0.7090,0.0305,0.4751,0.8067,0.5108,0.7644,-1.0824,1.0457,-0.7542,-0.7754,49.23789369,-123.03210503,0.00000000,
0.7100,-0.0199,0.6861,0.6639,0.5108,0.7644,-1.0824,1.0457,-0.7542,-0.7754,49.23789369,-123.03210503,0.00000000,
0.7110,-0.0111,0.7125,0.6755,0.5108,0.7644,-1.0824,1.0457,-0.7542,-0.7754,49.23789369,-123.03210503,0.00000000,
0.7120,0.1022,0.5356,0.8249,0.5108,0.7644,-1.0824,1.0457,-0.7542,-0.7754,49.23789369,-123.03210503,0.00000000,
0.7610,0.1022,0.5356,0.8249,0.5108,0.7644,-1.0824,-0.0830,-0.0517,-0.9411,49.23789369,-123.03210503,0.00000000,
0.7620,0.1022,0.5356,0.8249,1.5481,-0.0384,0.4830,-0.0830,-0.0517,-0.9411,49.23789369,-123.03210503,0.00000000,
0.7880,0.1012,0.4317,1.0086,1.5481,-0.0384,0.4830,-0.0830,-0.0517,-0.9411,49.23789369,-123.03210503,0.00000000,
0.7890,0.0641,0.3675,1.0922,1.5481,-0.0384,0.4830,-0.0830,-0.0517,-0.9411,49.23789369,-123.03210503,0.00000000,
0.7900,0.0259,0.3289,1.0116,1.5481,-0.0384,0.4830,-0.0830,-0.0517,-0.9411,49.23789369,-123.03210503,0.00000000,
0.8290,0.0259,0.3289,1.0116,1.5481,-0.0384,0.4830,-0.2428,-0.4299,-1.4387,49.23789369,-123.03210503,0.00000000,
0.8300,0.0259,0.3289,1.0116,1.5242,-1.7368,1.6786,-0.2428,-0.4299,-1.4387,49.23789101,-123.03210410,0.00000000,
0.8680,0.0259,0.3289,1.0116,1.5242,-1.7368,1.6786,0.0083,-1.1397,-1.9222,49.23789101,-123.03210410,0.00000000,
0.8690,0.0809,0.2694,1.0440,1.5242,-1.7368,1.6786,0.0083,-1.1397,-1.9222,49.23789101,-123.03210410,0.00000000,
0.8700,0.2091,0.2085,1.1648,1.5242,-1.7368,1.6786,0.0083,-1.1397,-1.9222,49.23789101,-123.03210410,0.00000000,
0.8710,0.0077,0.3477,1.2098,1.5242,-1.7368,1.6786,0.0083,-1.1397,-1.9222,49.23789101,-123.03210410,0.00000000,
0.8710,-0.1869,0.4867,1.0806,1.5242,-1.7368,1.6786,0.0083,-1.1397,-1.9222,49.23789101,-123.03210410,0.00000000,
0.8730,-0.1869,0.4867,1.0806,0.1212,-0.6386,2.1258,0.0083,-1.1397,-1.9222,49.23789101,-123.03210410,0.00000000,
0.9100,-0.1869,0.4867,1.0806,0.1212,-0.6386,2.1258,0.4639,-0.9174,-1.5426,49.23789101,-123.03210410,0.00000000,
0.9430,-0.1175,0.4538,0.9040,0.1212,-0.6386,2.1258,0.4639,-0.9174,-1.5426,49.23789101,-123.03210410,0.00000000,
0.9440,-0.0122,0.3417,0.7616,0.1212,-0.6386,2.1258,0.4639,-0.9174,-1.5426,49.23789101,-123.03210410,0.00000000,
0.9460,-0.0462,0.3786,0.7329,0.1212,-0.6386,2.1258,0.4639,-0.9174,-1.5426,49.23789101,-123.03210410,0.00000000,
0.9470,-0.1197,0.4281,0.8136,0.1212,-0.6386,2.1258,0.4639,-0.9174,-1.5426,49.23789101,-123.03210410,0.00000000,
0.9480,-0.1197,0.4281,0.8136,0.0935,-0.8791,-1.1526,0.4639,-0.9174,-1.5426,49.23789101,-123.03210410,0.00000000,
0.9890,-0.1197,0.4281,0.8136,0.0935,-0.8791,-1.1526,0.1661,-0.7793,-1.0639,49.23789101,-123.03210410,0.00000000,
0.9910,-0.1197,0.4281,0.8136,0.0686,-1.0159,0.7470,0.1661,-0.7793,-1.0639,49.23789101,-123.03210410,0.00000000,
1.0160,-0.0359,0.3249,0.9460,0.0686,-1.0159,0.7470,0.1661,-0.7793,-1.0639,49.23789101,-123.03210410,0.00000000,
1.0170,-0.0145,0.3696,1.0215,0.0686,-1.0159,0.7470,0.1661,-0.7793,-1.0639,49.23789101,-123.03210410,0.00000000,
1.0180,-0.0047,0.4050,0.9627,0.0686,-1.0159,0.7470,0.1661,-0.7793,-1.0639,49.23789101,-123.03210410,0.00000000,
1.0180,-0.0556,0.4231,0.9401,0.0686,-1.0159,0.7470,0.1661,-0.7793,-1.0639,49.23789101,-123.03210410,0.00000000,
1.0480,-0.0556,0.4231,0.9401,0.0686,-1.0159,0.7470,0.1716,-1.2029,-1.1103,49.23789101,-123.03210410,0.00000000,
1.0490,-0.0556,0.4231,0.9401,-0.4690,-0.4658,0.7992,0.1716,-1.2029,-1.1103,49.23789101,-123.03210410,0.00000000,
1.0890,-0.0984,0.4461,1.0083,-0.4690,-0.4658,0.7992,0.1716,-1.2029,-1.1103,49.23789101,-123.03210410,0.00000000,
1.0900,-0.0294,0.4081,0.9694,-0.4690,-0.4658,0.7992,0.1716,-1.2029,-1.1103,49.23789101,-123.03210410,0.00000000,
1.0910,-0.0255,0.4375,0.8536,-0.4690,-0.4658,0.7992,0.1716,-1.2029,-1.1103,49.23789101,-123.03210410,0.00000000,
1.0920,0.0123,0.4389,0.7809,-0.4690,-0.4658,0.7992,0.1716,-1.2029,-1.1103,49.23789101,-123.03210410,0.00000000,
1.0920,0.0123,0.4389,0.7809,-0.4690,-0.4658,0.7992,0.0814,-1.7549,-0.9324,49.23789101,-123.03210410,0.00000000,
1.1390,0.0123,0.4389,0.7809,-0.5936,-0.4428,-0.5881,0.0814,-1.7549,-0.9324,49.23789101,-123.03210410,0.00000000,
1.1670,0.0123,0.4389,0.7809,-0.5936,-0.4428,-0.5881,-0.4977,-1.5731,-0.6930,49.23789101,-123.03210410,0.00000000,
1.1680,0.0123,0.4389,0.7809,-0.9339,-0.4173,-0.3069,-0.4977,-1.5731,-0.6930,49.23789101,-123.03210410,0.00000000,
1.1690,-0.0032,0.4142,0.7432,-0.9339,-0.4173,-0.3069,-0.4977,-1.5731,-0.6930,49.23789101,-123.03210410,0.00000000,
1.1700,0.0090,0.4270,0.7951,-0.9339,-0.4173,-0.3069,-0.4977,-1.5731,-0.6930,49.23789101,-123.03210410,0.00000000,
1.1710,0.0465,0.3987,0.9409,-0.9339,-0.4173,-0.3069,-0.4977,-1.5731,-0.6930,49.23789101,-123.03210410,0.00000000,
1.2090,0.0465,0.3987,0.9409,-0.9339,-0.4173,-0.3069,0.2755,-1.6168,-0.4452,49.23789101,-123.03210410,0.00000000,
1.2450,-0.0319,0.3740,0.9057,-0.9339,-0.4173,-0.3069,0.2755,-1.6168,-0.4452,49.23789101,-123.03210410,0.00000000,
1.2460,-0.1087,0.3866,0.8380,-0.9339,-0.4173,-0.3069,0.2755,-1.6168,-0.4452,49.23789101,-123.03210410,0.00000000,
1.2470,-0.0785,0.4258,0.8679,-0.9339,-0.4173,-0.3069,0.2755,-1.6168,-0.4452,49.23789101,-123.03210410,0.00000000,
1.2480,-0.0525,0.4610,0.7645,-0.9339,-0.4173,-0.3069,0.2755,-1.6168,-0.4452,49.23789101,-123.03210410,0.00000000,
1.2500,-0.0525,0.4610,0.7645,-2.5988,-0.6012,-0.1514,0.2755,-1.6168,-0.4452,49.23789101,-123.03210410,0.00000000,
1.2890,-0.0525,0.4610,0.7645,-2.5988,-0.6012,-0.1514,0.5975,-1.7366,0.2192,49.23789101,-123.03210410,0.00000000,
1.2910,-0.0525,0.4610,0.7645,-3.3035,0.0378,-1.1595,0.5975,-1.7366,0.2192,49.23789101,-123.03210410,0.00000000,
1.3220,-0.0789,0.5073,0.6972,-3.3035,0.0378,-1.1595,0.5975,-1.7366,0.2192,49.23789101,-123.03210410,0.00000000,
1.3230,-0.1049,0.5062,0.6719,-3.3035,0.0378,-1.1595,0.5975,-1.7366,0.2192,49.23789101,-123.03210410,0.00000000,
1.3240,-0.0693,0.4901,0.7274,-3.3035,0.0378,-1.1595,0.5975,-1.7366,0.2192,49.23789101,-123.03210410,0.00000000,
1.3260,0.0136,0.4696,0.7528,-3.3035,0.0378,-1.1595,0.5975,-1.7366,0.2192,49.23789101,-123.03210410,0.00000000,
1.3690,0.0136,0.4696,0.7528,-3.3035,0.0378,-1.1595,0.4591,-1.7911,1.4224,49.23789101,-123.03210410,0.00000000,
1.3700,0.0136,0.4696,0.7528,-3.3197,-0.2299,-0.3986,0.4591,-1.7911,1.4224,49.23789101,-123.03210410,0.00000000,
1.4000,0.0136,0.4696,0.7528,-3.3197,-0.2299,-0.3986,0.1970,-1.6418,2.9010,49.23789101,-123.03210410,0.00000000,
1.4010,0.0668,0.4557,0.7378,-3.3197,-0.2299,-0.3986,0.1970,-1.6418,2.9010,49.23789101,-123.03210410,0.00000000,
1.4010,0.1412,0.4036,0.6082,-3.3197,-0.2299,-0.3986,0.1970,-1.6418,2.9010,49.23789101,-123.03210410,0.00000000,
1.4020,0.2182,0.4109,0.5520,-3.3197,-0.2299,-0.3986,0.1970,-1.6418,2.9010,49.23789101,-123.03210410,0.00000000,
1.4030,0.2739,0.3623,0.5673,-3.3197,-0.2299,-0.3986,0.1970,-1.6418,2.9010,49.23789101,-123.03210410,0.00000000,
1.4030,0.2739,0.3623,0.5673,-2.6856,-0.2181,-1.2905,0.1970,-1.6418,2.9010,49.23789101,-123.03210410,0.00000000,
1.4490,0.2739,0.3623,0.5673,-2.6856,-0.2181,-1.2905,0.0388,-1.9862,4.2919,49.23789101,-123.03210410,0.00000000,
1.4780,0.3751,0.2974,0.6838,-2.6856,-0.2181,-1.2905,0.0388,-1.9862,4.2919,49.23789101,-123.03210410,0.00000000,
1.4790,0.4923,0.2690,0.7698,-2.6856,-0.2181,-1.2905,0.0388,-1.9862,4.2919,49.23789101,-123.03210410,0.00000000,
1.4800,0.5673,0.1972,0.7021,-2.6856,-0.2181,-1.2905,0.0388,-1.9862,4.2919,49.23789101,-123.03210410,0.00000000,
1.4810,0.6242,0.0917,0.5244,-2.6856,-0.2181,-1.2905,0.0388,-1.9862,4.2919,49.23789101,-123.03210410,0.00000000,
1.4810,0.6242,0.0917,0.5244,-1.5485,-0.1716,0.5904,0.0388,-1.9862,4.2919,49.23789101,-123.03210410,0.00000000,
1.5190,0.6242,0.0917,0.5244,-1.5485,-0.1716,0.5904,0.0845,-0.9417,5.4005,49.23789101,-123.03210410,0.00000000,
1.5210,0.6242,0.0917,0.5244,-0.6331,0.3606,-0.1220,0.0845,-0.9417,5.4005,49.23789101,-123.03210410,0.00000000,
1.5560,0.6892,0.0338,0.5057,-0.6331,0.3606,-0.1220,0.0845,-0.9417,5.4005,49.23789101,-123.03210410,0.00000000,
1.5560,0.6913,0.0367,0.6303,-0.6331,0.3606,-0.1220,0.0845,-0.9417,5.4005,49.23789101,-123.03210410,0.00000000,
1.5570,0.6996,-0.0298,0.8925,-0.6331,0.3606,-0.1220,0.0845,-0.9417,5.4005,49.23789101,-123.03210410,0.00000000,
1.5580,0.7644,-0.0957,1.0273,-0.6331,0.3606,-0.1220,0.0845,-0.9417,5.4005,49.23789101,-123.03210410,0.00000000,
1.5700,0.7644,-0.0957,1.0273,-0.6331,0.3606,-0.1220,0.4142,-0.7207,5.8828,49.23789101,-123.03210410,0.00000000,
1.6190,0.7644,-0.0957,1.0273,0.9096,1.0899,3.3235,0.4142,-0.7207,5.8828,49.23789101,-123.03210410,0.00000000,
1.6330,0.7644,-0.0957,1.0273,0.9096,1.0899,3.3235,1.2330,-0.8024,5.1753,49.23789101,-123.03210410,0.00000000,
1.6340,0.8633,-0.1689,0.8770,0.9096,1.0899,3.3235,1.2330,-0.8024,5.1753,49.23789101,-123.03210410,0.00000000,
1.6340,1.0364,-0.1838,0.8115,0.9096,1.0899,3.3235,1.2330,-0.8024,5.1753,49.23789101,-123.03210410,0.00000000,
1.6350,1.2659,-0.1894,0.8506,0.9096,1.0899,3.3235,1.2330,-0.8024,5.1753,49.23789101,-123.03210410,0.00000000,
1.6350,1.5350,-0.1692,0.8250,0.9096,1.0899,3.3235,1.2330,-0.8024,5.1753,49.23789101,-123.03210410,0.00000000,
1.6790,1.5350,-0.1692,0.8250,6.9485,2.0754,2.1441,1.2330,-0.8024,5.1753,49.23789101,-123.03210410,0.00000000,
1.7110,1.5350,-0.1692,0.8250,6.9485,2.0754,2.1441,1.4697,-0.6115,1.6782,49.23789101,-123.03210410,0.00000000,
1.7120,1.5350,-0.1692,0.8250,10.0005,3.5791,-2.8413,1.4697,-0.6115,1.6782,49.23789101,-123.03210410,0.00000000,
1.7120,1.7801,-0.1368,0.6407,10.0005,3.5791,-2.8413,1.4697,-0.6115,1.6782,49.23789101,-123.03210410,0.00000000,
1.7130,1.8306,-0.0408,0.4316,10.0005,3.5791,-2.8413,1.4697,-0.6115,1.6782,49.23789101,-123.03210410,0.00000000,
1.7140,1.7550,0.0715,0.1981,10.0005,3.5791,-2.8413,1.4697,-0.6115,1.6782,49.23789101,-123.03210410,0.00000000,
1.7140,1.4303,0.0694,-0.0253,10.0005,3.5791,-2.8413,1.4697,-0.6115,1.6782,49.23789101,-123.03210410,0.00000000,
1.7590,1.4303,0.0694,-0.0253,10.0005,3.5791,-2.8413,-0.0727,-0.4432,-1.8876,49.23789101,-123.03210410,0.00000000,
1.7600,1.4303,0.0694,-0.0253,0.9627,1.4363,-2.1004,-0.0727,-0.4432,-1.8876,49.23789101,-123.03210410,0.00000000,
1.7890,0.9974,-0.1053,0.2202,0.9627,1.4363,-2.1004,-0.0727,-0.4432,-1.8876,49.23789101,-123.03210410,0.00000000,
1.7890,0.7023,-0.2191,0.5451,0.9627,1.4363,-2.1004,-0.0727,-0.4432,-1.8876,49.23789101,-123.03210410,0.00000000,
1.7900,0.5175,-0.1595,0.5610,0.9627,1.4363,-2.1004,-0.0727,-0.4432,-1.8876,49.23789101,-123.03210410,0.00000000,
1.7910,0.2418,-0.1730,0.4689,0.9627,1.4363,-2.1004,-0.0727,-0.4432,-1.8876,49.23789101,-123.03210410,0.00000000,
1.8310,0.2418,-0.1730,0.4689,0.9627,1.4363,-2.1004,-0.0288,-1.9912,-1.8879,49.23789101,-123.03210410,0.00000000,
1.8320,0.2418,-0.1730,0.4689,-6.4501,-0.1935,0.3384,-0.0288,-1.9912,-1.8879,49.23789101,-123.03210410,0.00000000,
1.8660,0.1419,-0.2045,0.3739,-6.4501,-0.1935,0.3384,-0.0288,-1.9912,-1.8879,49.23789101,-123.03210410,0.00000000,
1.8680,0.0661,-0.3302,0.5837,-6.4501,-0.1935,0.3384,-0.0288,-1.9912,-1.8879,49.23789101,-123.03210410,0.00000000,
1.8690,0.2428,-0.2393,0.5134,-6.4501,-0.1935,0.3384,-0.0288,-1.9912,-1.8879,49.23789101,-123.03210410,0.00000000,
1.9100,0.2428,-0.2393,0.5134,-5.3101,-0.4330,1.0806,-0.0288,-1.9912,-1.8879,49.23789101,-123.03210410,0.00000000,
1.9110,0.2428,-0.2393,0.5134,-5.3101,-0.4330,1.0806,0.3419,-3.0465,-0.1933,49.23789101,-123.03210410,0.00000000,
1.9440,0.2428,-0.2393,0.5134,-5.3101,-0.4330,1.0806,-0.2041,-3.0572,0.1759,49.23789101,-123.03210410,0.00000000,
1.9450,0.2428,-0.2393,0.5134,0.0779,0.1377,-4.5492,-0.2041,-3.0572,0.1759,49.23789101,-123.03210410,0.00000000,
1.9460,0.4819,-0.1879,0.3274,0.0779,0.1377,-4.5492,-0.2041,-3.0572,0.1759,49.23789101,-123.03210410,0.00000000,
1.9470,0.7611,-0.1386,-0.0469,0.0779,0.1377,-4.5492,-0.2041,-3.0572,0.1759,49.23789101,-123.03210410,0.00000000,
1.9480,0.9486,-0.1610,-0.4209,0.0779,0.1377,-4.5492,-0.2041,-3.0572,0.1759,49.23789101,-123.03210410,0.00000000,
1.9480,0.9365,-0.2088,-0.4717,0.0779,0.1377,-4.5492,-0.2041,-3.0572,0.1759,49.23789101,-123.03210410,0.00000000,
1.9880,0.9365,-0.2088,-0.4717,0.0779,0.1377,-4.5492,-1.5541,-0.6582,0.1982,49.23789101,-123.03210410,0.00000000,
2.0220,1.1393,-0.2099,-0.1337,0.0779,0.1377,-4.5492,-1.5541,-0.6582,0.1982,49.23789101,-123.03210410,0.00000000,
2.0230,1.0896,-0.0869,-0.0385,0.0779,0.1377,-4.5492,-1.5541,-0.6582,0.1982,49.23789101,-123.03210410,0.00000000,
2.0230,1.0541,-0.1417,-0.1014,0.0779,0.1377,-4.5492,-1.5541,-0.6582,0.1982,49.23789101,-123.03210410,0.00000000,
2.0240,1.1226,-0.1512,-0.2053,0.0779,0.1377,-4.5492,-1.5541,-0.6582,0.1982,49.23789101,-123.03210410,0.00000000,
2.0250,1.1226,-0.1512,-0.2053,1.3637,0.7829,-1.5085,-1.5541,-0.6582,0.1982,49.23789101,-123.03210410,0.00000000,
2.0680,1.1226,-0.1512,-0.2053,1.3637,0.7829,-1.5085,-1.5197,-0.0070,0.5033,49.23789101,-123.03210410,0.00000000,
2.0690,1.1226,-0.1512,-0.2053,3.9211,-0.3817,-0.5462,-1.5197,-0.0070,0.5033,49.23789101,-123.03210410,0.00000000,
2.0930,1.3597,-0.2640,-0.1328,3.9211,-0.3817,-0.5462,-1.5197,-0.0070,0.5033,49.23789101,-123.03210410,0.00000000,
2.0940,1.4092,-0.3311,0.0404,3.9211,-0.3817,-0.5462,-1.5197,-0.0070,0.5033,49.23789101,-123.03210410,0.00000000,
2.0940,1.4476,-0.4005,0.3520,3.9211,-0.3817,-0.5462,-1.5197,-0.0070,0.5033,49.23789101,-123.03210410,0.00000000,
2.0960,1.3467,-0.3884,0.5483,3.9211,-0.3817,-0.5462,-1.5197,-0.0070,0.5033,49.23789101,-123.03210410,0.00000000,
2.1380,1.3467,-0.3884,0.5483,3.9211,-0.3817,-0.5462,-0.4233,0.0032,0.1785,49.23789101,-123.03210410,0.00000000,
2.1400,1.3467,-0.3884,0.5483,2.2904,-1.7874,3.7861,-0.4233,0.0032,0.1785,49.23789101,-123.03210410,0.00000000,
2.1710,1.3467,-0.3884,0.5483,2.2904,-1.7874,3.7861,0.4910,-0.2596,0.9468,49.23789101,-123.03210410,0.00000000,
2.1710,1.0551,-0.4590,0.3791,2.2904,-1.7874,3.7861,0.4910,-0.2596,0.9468,49.23789101,-123.03210410,0.00000000,
2.1720,0.7531,-0.6081,0.2541,2.2904,-1.7874,3.7861,0.4910,-0.2596,0.9468,49.23789101,-123.03210410,0.00000000,
2.1720,0.5235,-0.7678,0.1696,2.2904,-1.7874,3.7861,0.4910,-0.2596,0.9468,49.23789101,-123.03210410,0.00000000,
2.1730,0.3298,-0.7303,0.1632,2.2904,-1.7874,3.7861,0.4910,-0.2596,0.9468,49.23789101,-123.03210410,0.00000000,
2.2190,0.3298,-0.7303,0.1632,-4.6159,-3.9787,1.3890,0.4910,-0.2596,0.9468,49.23789101,-123.03210410,0.00000000,
2.2480,0.3298,-0.7303,0.1632,-4.6159,-3.9787,1.3890,-0.2442,0.1928,2.2769,49.23789101,-123.03210410,0.00000000,
2.2490,0.3379,-0.8008,0.2410,-4.6159,-3.9787,1.3890,-0.2442,0.1928,2.2769,49.23789101,-123.03210410,0.00000000,
2.2500,0.2706,-0.7057,0.2415,-4.6159,-3.9787,1.3890,-0.2442,0.1928,2.2769,49.23789101,-123.03210410,0.00000000,
2.2510,0.2477,-0.5314,0.1751,-4.6159,-3.9787,1.3890,-0.2442,0.1928,2.2769,49.23789101,-123.03210410,0.00000000,
2.2510,0.3534,-0.5000,0.0468,-4.6159,-3.9787,1.3890,-0.2442,0.1928,2.2769,49.23789101,-123.03210410,0.00000000,
2.2520,0.3534,-0.5000,0.0468,-5.5042,-1.4569,1.4677,-0.2442,0.1928,2.2769,49.23789101,-123.03210410,0.00000000,
2.2980,0.3534,-0.5000,0.0468,-5.5042,-1.4569,1.4677,-0.0020,-0.5634,4.8227,49.23789101,-123.03210410,0.00000000,
2.3000,0.3534,-0.5000,0.0468,-2.0116,1.8709,-2.8095,-0.0020,-0.5634,4.8227,49.23789101,-123.03210410,0.00000000,
2.3270,0.4819,-0.5514,-0.2796,-2.0116,1.8709,-2.8095,-0.0020,-0.5634,4.8227,49.23789101,-123.03210410,0.00000000,
2.3280,0.4667,-0.5317,-0.3455,-2.0116,1.8709,-2.8095,-0.0020,-0.5634,4.8227,49.23789101,-123.03210410,0.00000000,
2.3290,0.3698,-0.4691,-0.3595,-2.0116,1.8709,-2.8095,-0.0020,-0.5634,4.8227,49.23789101,-123.03210410,0.00000000,
2.3530,0.3698,-0.4691,-0.3595,-2.0116,1.8709,-2.8095,1.4826,-0.2376,5.2087,49.23789101,-123.03210410,0.00000000,
2.3980,0.3698,-0.4691,-0.3595,-0.1933,2.3142,-3.2483,1.4826,-0.2376,5.2087,49.23789101,-123.03210410,0.00000000,
2.3990,0.2533,-0.5462,-0.2996,-0.1933,2.3142,-3.2483,1.4826,-0.2376,5.2087,49.23789101,-123.03210410,0.00000000,
2.4000,0.4509,-0.6158,-0.1924,-0.1933,2.3142,-3.2483,1.4826,-0.2376,5.2087,49.23789101,-123.03210410,0.00000000,
2.4010,0.5501,-1.0492,-0.1696,-0.1933,2.3142,-3.2483,1.4826,-0.2376,5.2087,49.23789101,-123.03210410,0.00000000,
2.4020,0.2119,-1.3040,0.0836,-0.1933,2.3142,-3.2483,1.4826,-0.2376,5.2087,49.23789101,-123.03210410,0.00000000,
2.4480,0.2119,-1.3040,0.0836,-0.1933,2.3142,-3.2483,0.4104,-3.6083,3.2602,49.23789101,-123.03210410,0.00000000,
2.4490,0.2119,-1.3040,0.0836,0.9098,-6.4053,0.4964,0.4104,-3.6083,3.2602,49.23789101,-123.03210410,0.00000000,
2.4800,0.2119,-1.3040,0.0836,0.9098,-6.4053,0.4964,-1.1800,0.7753,0.9350,49.23789101,-123.03210410,0.00000000,
2.4820,0.3960,-1.8998,0.1884,0.9098,-6.4053,0.4964,-1.1800,0.7753,0.9350,49.23789101,-123.03210410,0.00000000,
2.4830,0.4718,-1.8835,0.0384,0.9098,-6.4053,0.4964,-1.1800,0.7753,0.9350,49.23789101,-123.03210410,0.00000000,
2.4840,0.2311,-1.0517,0.1212,0.9098,-6.4053,0.4964,-1.1800,0.7753,0.9350,49.23789101,-123.03210410,0.00000000,
2.4850,0.1218,-0.5759,-0.0107,0.9098,-6.4053,0.4964,-1.1800,0.7753,0.9350,49.23789101,-123.03210410,0.00000000,
2.5210,0.1218,-0.5759,-0.0107,-0.2518,0.0317,0.8090,-1.1800,0.7753,0.9350,49.23789101,-123.03210410,0.00000000,
2.5540,0.1218,-0.5759,-0.0107,-0.2518,0.0317,0.8090,-1.2812,-0.7885,-0.4264,49.23789101,-123.03210410,0.00000000,
2.5550,0.1218,-0.5759,-0.0107,0.0628,-0.0740,-3.0928,-1.2812,-0.7885,-0.4264,49.23789101,-123.03210410,0.00000000,
2.5560,0.1725,-0.6581,-0.1667,0.0628,-0.0740,-3.0928,-1.2812,-0.7885,-0.4264,49.23789101,-123.03210410,0.00000000,
2.5570,0.2281,-0.8737,-0.3857,0.0628,-0.0740,-3.0928,-1.2812,-0.7885,-0.4264,49.23789101,-123.03210410,0.00000000,
2.5580,0.3038,-1.0441,-0.5578,0.0628,-0.0740,-3.0928,-1.2812,-0.7885,-0.4264,49.23789101,-123.03210410,0.00000000,
2.5600,0.3819,-1.0553,-0.5821,0.0628,-0.0740,-3.0928,-1.2812,-0.7885,-0.4264,49.23789101,-123.03210410,0.00000000,
2.5980,0.3819,-1.0553,-0.5821,0.0628,-0.0740,-3.0928,-0.1077,-0.5598,-0.4594,49.23789101,-123.03210410,0.00000000,
2.5990,0.3819,-1.0553,-0.5821,1.1712,0.2045,-3.6830,-0.1077,-0.5598,-0.4594,49.23789101,-123.03210410,0.00000000,
2.6320,0.4105,-0.9038,-0.5501,1.1712,0.2045,-3.6830,-0.1077,-0.5598,-0.4594,49.23789101,-123.03210410,0.00000000,
2.6330,0.4019,-0.8435,-0.5258,1.1712,0.2045,-3.6830,-0.1077,-0.5598,-0.4594,49.23789101,-123.03210410,0.00000000,
2.6340,0.4107,-0.8946,-0.4128,1.1712,0.2045,-3.6830,-0.1077,-0.5598,-0.4594,49.23789101,-123.03210410,0.00000000,
2.6360,0.2461,-0.9197,-0.3076,1.1712,0.2045,-3.6830,-0.1077,-0.5598,-0.4594,49.23789101,-123.03210410,0.00000000,
2.6790,0.2461,-0.9197,-0.3076,1.1712,0.2045,-3.6830,-0.2893,-0.5279,-0.7254,49.23789101,-123.03210410,0.00000000,
2.6810,0.2461,-0.9197,-0.3076,0.2439,-1.6342,-0.7421,-0.2893,-0.5279,-0.7254,49.23789101,-123.03210410,0.00000000,
2.7110,0.2461,-0.9197,-0.3076,0.2439,-1.6342,-0.7421,0.4727,-0.1948,-0.5386,49.23789101,-123.03210410,0.00000000,
2.7120,0.4189,-1.1996,-0.2181,0.2439,-1.6342,-0.7421,0.4727,-0.1948,-0.5386,49.23789101,-123.03210410,0.00000000,
2.7130,0.3698,-1.3335,-0.0837,0.2439,-1.6342,-0.7421,0.4727,-0.1948,-0.5386,49.23789101,-123.03210410,0.00000000,
2.7140,0.2827,-1.3872,0.0158,0.2439,-1.6342,-0.7421,0.4727,-0.1948,-0.5386,49.23789101,-123.03210410,0.00000000,
2.7150,0.2073,-1.4044,0.0991,0.2439,-1.6342,-0.7421,0.4727,-0.1948,-0.5386,49.23789101,-123.03210410,0.00000000,
2.7600,0.2073,-1.4044,0.0991,-0.9310,-4.6145,1.7829,0.4727,-0.1948,-0.5386,49.23789101,-123.03210410,0.00000000,
2.7880,0.2073,-1.4044,0.0991,-0.9310,-4.6145,1.7829,0.0278,-0.1335,-0.0594,49.23789101,-123.03210410,0.00000000,
2.7890,0.1585,-1.3080,-0.0014,-0.9310,-4.6145,1.7829,0.0278,-0.1335,-0.0594,49.23789101,-123.03210410,0.00000000,
2.7890,-0.0189,-0.9522,-0.0546,-0.9310,-4.6145,1.7829,0.0278,-0.1335,-0.0594,49.23789101,-123.03210410,0.00000000,
2.7900,-0.0046,-0.8289,0.0598,-0.9310,-4.6145,1.7829,0.0278,-0.1335,-0.0594,49.23789101,-123.03210410,0.00000000,
2.7900,0.1212,-0.8087,0.1599,-0.9310,-4.6145,1.7829,0.0278,-0.1335,-0.0594,49.23789101,-123.03210410,0.00000000,
2.7910,0.1212,-0.8087,0.1599,-3.0586,-0.2153,1.6852,0.0278,-0.1335,-0.0594,49.23789101,-123.03210410,0.00000000,
2.8380,0.1212,-0.8087,0.1599,-3.0586,-0.2153,1.6852,0.3495,-0.3624,-0.1309,49.23789101,-123.03210410,0.00000000,
2.8390,0.1212,-0.8087,0.1599,-1.6715,1.2312,3.2978,0.3495,-0.3624,-0.1309,49.23789101,-123.03210410,0.00000000,
2.8660,0.1851,-0.7463,0.2374,-1.6715,1.2312,3.2978,0.3495,-0.3624,-0.1309,49.23789101,-123.03210410,0.00000000,
2.8680,0.1848,-0.7892,0.2324,-1.6715,1.2312,3.2978,0.3495,-0.3624,-0.1309,49.23789101,-123.03210410,0.00000000,
2.8680,0.1419,-0.8974,0.1082,-1.6715,1.2312,3.2978,0.3495,-0.3624,-0.1309,49.23789101,-123.03210410,0.00000000,
2.9090,0.1419,-0.8974,0.1082,-1.6715,1.2312,3.2978,0.2856,-0.6415,-0.1481,49.23789101,-123.03210410,0.00000000,
2.9100,0.1419,-0.8974,0.1082,-0.9143,-0.2277,0.1474,0.2856,-0.6415,-0.1481,49.23789101,-123.03210410,0.00000000,
2.9460,0.2120,-0.9779,-0.0946,-0.9143,-0.2277,0.1474,0.2856,-0.6415,-0.1481,49.23789101,-123.03210410,0.00000000,
2.9470,0.3030,-0.9280,-0.1847,-0.9143,-0.2277,0.1474,0.2856,-0.6415,-0.1481,49.23789101,-123.03210410,0.00000000,
2.9480,0.3534,-0.8612,-0.1852,-0.9143,-0.2277,0.1474,0.2856,-0.6415,-0.1481,49.23789101,-123.03210410,0.00000000,
2.9490,0.3758,-0.8516,-0.2108,-0.9143,-0.2277,0.1474,0.2856,-0.6415,-0.1481,49.23789101,-123.03210410,0.00000000,
2.9880,0.3758,-0.8516,-0.2108,0.2048,0.4529,-0.7232,0.2856,-0.6415,-0.1481,49.23789101,-123.03210410,0.00000000,
2.9900,0.3758,-0.8516,-0.2108,0.2048,0.4529,-0.7232,0.0120,-0.2562,-0.2106,49.23789101,-123.03210410,0.00000000,
3.0220,0.3758,-0.8516,-0.2108,0.2048,0.4529,-0.7232,0.2588,-0.7044,0.1301,49.23789101,-123.03210410,0.00000000,
3.0230,0.3758,-0.8717,-0.2171,0.2048,0.4529,-0.7232,0.2588,-0.7044,0.1301,49.23789101,-123.03210410,0.00000000,
3.0240,0.3562,-0.8605,-0.2164,0.2048,0.4529,-0.7232,0.2588,-0.7044,0.1301,49.23789101,-123.03210410,0.00000000,
3.0250,0.3299,-0.8149,-0.2307,0.2048,0.4529,-0.7232,0.2588,-0.7044,0.1301,49.23789101,-123.03210410,0.00000000,
3.0260,0.2952,-0.7714,-0.2384,0.2048,0.4529,-0.7232,0.2588,-0.7044,0.1301,49.23789101,-123.03210410,0.00000000,
3.0270,0.2952,-0.7714,-0.2384,-0.2404,1.1250,-0.9863,0.2588,-0.7044,0.1301,49.23789101,-123.03210410,0.00000000,
3.0680,0.2952,-0.7714,-0.2384,-0.2404,1.1250,-0.9863,0.4408,-0.5497,0.2036,49.23789101,-123.03210410,0.00000000,
3.1000,0.2818,-0.7553,-0.2569,-0.2404,1.1250,-0.9863,0.4408,-0.5497,0.2036,49.23789101,-123.03210410,0.00000000,
3.1010,0.2733,-0.7523,-0.2644,-0.2404,1.1250,-0.9863,0.4408,-0.5497,0.2036,49.23789101,-123.03210410,0.00000000,
3.1010,0.2737,-0.7590,-0.2425,-0.2404,1.1250,-0.9863,0.4408,-0.5497,0.2036,49.23789101,-123.03210410,0.00000000,
3.1020,0.2919,-0.7253,-0.2205,-0.2404,1.1250,-0.9863,0.4408,-0.5497,0.2036,49.23789101,-123.03210410,0.00000000,
3.1030,0.2919,-0.7253,-0.2205,-0.4183,1.5938,-1.2403,0.4408,-0.5497,0.2036,49.23789101,-123.03210410,0.00000000,
3.1680,0.2919,-0.7253,-0.2205,-0.4183,1.5938,-1.2403,0.1414,-0.0632,0.1313,49.23789101,-123.03210410,0.00000000,
3.1690,0.2919,-0.7253,-0.2205,0.2073,1.9099,-1.3046,0.1414,-0.0632,0.1313,49.23789101,-123.03210410,0.00000000,
3.1780,0.3227,-0.6827,-0.2236,0.2073,1.9099,-1.3046,0.1414,-0.0632,0.1313,49.23789101,-123.03210410,0.00000000,
3.1790,0.3497,-0.7258,-0.2780,0.2073,1.9099,-1.3046,0.1414,-0.0632,0.1313,49.23789101,-123.03210410,0.00000000,
3.1800,0.4029,-0.8098,-0.3175,0.2073,1.9099,-1.3046,0.1414,-0.0632,0.1313,49.23789101,-123.03210410,0.00000000,
3.1810,0.4842,-0.8632,-0.2545,0.2073,1.9099,-1.3046,0.1414,-0.0632,0.1313,49.23789101,-123.03210410,0.00000000,
3.2180,0.4842,-0.8632,-0.2545,0.2073,1.9099,-1.3046,-0.2389,0.1019,-0.1125,49.23789101,-123.03210410,0.00000000,
3.2190,0.4842,-0.8632,-0.2545,1.7536,0.5513,-0.8913,-0.2389,0.1019,-0.1125,49.23789101,-123.03210410,0.00000000,
3.2540,0.4842,-0.8632,-0.2545,1.7536,0.5513,-0.8913,-0.3195,-0.0377,-0.3332,49.23789101,-123.03210410,0.00000000,
3.2550,0.5601,-0.8630,-0.1703,1.7536,0.5513,-0.8913,-0.3195,-0.0377,-0.3332,49.23789101,-123.03210410,0.00000000,
3.2560,0.5122,-0.8050,-0.2330,1.7536,0.5513,-0.8913,-0.3195,-0.0377,-0.3332,49.23789101,-123.03210410,0.00000000,
3.2560,0.4512,-0.7907,-0.3043,1.7536,0.5513,-0.8913,-0.3195,-0.0377,-0.3332,49.23789101,-123.03210410,0.00000000,
3.2570,0.4082,-0.9442,-0.3202,1.7536,0.5513,-0.8913,-0.3195,-0.0377,-0.3332,49.23789101,-123.03210410,0.00000000,
3.2980,0.4082,-0.9442,-0.3202,0.6705,0.1124,-1.4982,-0.3195,-0.0377,-0.3332,49.23789101,-123.03210410,0.00000000,
3.3310,0.4082,-0.9442,-0.3202,0.6705,0.1124,-1.4982,-0.5183,0.2450,-0.0329,49.23789101,-123.03210410,0.00000000,
3.3320,0.2493,-1.0897,-0.3594,0.6705,0.1124,-1.4982,-0.5183,0.2450,-0.0329,49.23789101,-123.03210410,0.00000000,
3.3320,0.2367,-1.2447,-0.3038,0.6705,0.1124,-1.4982,-0.5183,0.2450,-0.0329,49.23789101,-123.03210410,0.00000000,
3.3330,0.3878,-1.4137,-0.1359,0.6705,0.1124,-1.4982,-0.5183,0.2450,-0.0329,49.23789101,-123.03210410,0.00000000,
3.3340,0.4041,-1.3911,-0.0778,0.6705,0.1124,-1.4982,-0.5183,0.2450,-0.0329,49.23789101,-123.03210410,0.00000000,
3.3350,0.4041,-1.3911,-0.0778,-0.3251,-4.0389,-0.3254,-0.5183,0.2450,-0.0329,49.23789101,-123.03210410,0.00000000,
3.3780,0.4041,-1.3911,-0.0778,-0.3251,-4.0389,-0.3254,-0.3168,-0.8592,-0.0186,49.23789101,-123.03210410,0.00000000,
3.3790,0.4041,-1.3911,-0.0778,-1.3811,-1.7325,1.6131,-0.3168,-0.8592,-0.0186,49.23789101,-123.03210410,0.00000000,
3.4070,0.2526,-1.1636,-0.1110,-1.3811,-1.7325,1.6131,-0.3168,-0.8592,-0.0186,49.23789101,-123.03210410,0.00000000,
3.4080,0.1040,-0.9585,-0.0247,-1.3811,-1.7325,1.6131,-0.3168,-0.8592,-0.0186,49.23789101,-123.03210410,0.00000000,
3.4090,0.0467,-0.8744,0.1003,-1.3811,-1.7325,1.6131,-0.3168,-0.8592,-0.0186,49.23789101,-123.03210410,0.00000000,
3.4480,0.0467,-0.8744,0.1003,-1.3811,-1.7325,1.6131,0.0550,0.2162,0.6714,49.23789101,-123.03210410,0.00000000,
3.4500,0.0467,-0.8744,0.1003,-2.4922,-0.6792,4.0511,0.0550,0.2162,0.6714,49.23789101,-123.03210410,0.00000000,
3.4850,0.0345,-0.9349,0.2183,-2.4922,-0.6792,4.0511,0.0550,0.2162,0.6714,49.23789101,-123.03210410,0.00000000,
3.4870,0.0414,-1.0754,0.2534,-2.4922,-0.6792,4.0511,0.0550,0.2162,0.6714,49.23789101,-123.03210410,0.00000000,
3.4880,0.0410,-0.9975,0.2181,-2.4922,-0.6792,4.0511,0.0550,0.2162,0.6714,49.23789101,-123.03210410,0.00000000,
3.4890,0.0738,-0.9181,0.0969,-2.4922,-0.6792,4.0511,0.0550,0.2162,0.6714,49.23789101,-123.03210410,0.00000000,
3.5280,0.0738,-0.9181,0.0969,-2.4922,-0.6792,4.0511,0.3804,-0.5005,0.6277,49.23789101,-123.03210410,0.00000000,
3.5290,0.0738,-0.9181,0.0969,-1.3357,0.2530,1.7426,0.3804,-0.5005,0.6277,49.23789101,-123.03210410,0.00000000,
3.5630,0.0738,-0.9181,0.0969,-1.3357,0.2530,1.7426,0.4578,-0.0556,-0.0056,49.23789101,-123.03210410,0.00000000,
3.5640,0.0738,-0.9181,0.0969,-0.1503,1.8607,-1.0685,0.4578,-0.0556,-0.0056,49.23789101,-123.03210410,0.00000000,
3.5660,0.1471,-0.8873,-0.0787,-0.1503,1.8607,-1.0685,0.4578,-0.0556,-0.0056,49.23789101,-123.03210410,0.00000000,
3.5670,0.2187,-0.8315,-0.2523,-0.1503,1.8607,-1.0685,0.4578,-0.0556,-0.0056,49.23789101,-123.03210410,0.00000000,
3.5680,0.2574,-0.7637,-0.2810,-0.1503,1.8607,-1.0685,0.4578,-0.0556,-0.0056,49.23789101,-123.03210410,0.00000000,
3.5690,0.2480,-0.7036,-0.2440,-0.1503,1.8607,-1.0685,0.4578,-0.0556,-0.0056,49.23789101,-123.03210410,0.00000000,
3.6080,0.2480,-0.7036,-0.2440,-0.1503,1.8607,-1.0685,-0.0757,-0.1735,0.1157,49.23789101,-123.03210410,0.00000000,
3.6400,0.2480,-0.7036,-0.2440,-1.0469,1.5568,-1.3976,-0.0757,-0.1735,0.1157,49.23789101,-123.03210410,0.00000000,
3.6430,0.2029,-0.7319,-0.2907,-1.0469,1.5568,-1.3976,-0.0757,-0.1735,0.1157,49.23789101,-123.03210410,0.00000000,
3.6440,0.1404,-0.7788,-0.3797,-1.0469,1.5568,-1.3976,-0.0757,-0.1735,0.1157,49.23789101,-123.03210410,0.00000000,
3.6460,0.1091,-0.7661,-0.2850,-1.0469,1.5568,-1.3976,-0.0757,-0.1735,0.1157,49.23789101,-123.03210410,0.00000000,
3.6480,0.1365,-0.7935,-0.2184,-1.0469,1.5568,-1.3976,-0.0757,-0.1735,0.1157,49.23789101,-123.03210410,0.00000000,
3.6880,0.1365,-0.7935,-0.2184,-1.0469,1.5568,-1.3976,0.2458,-0.3040,-0.0498,49.23789101,-123.03210410,0.00000000,
3.6900,0.1365,-0.7935,-0.2184,-0.4432,1.2627,-0.7958,0.2458,-0.3040,-0.0498,49.23789101,-123.03210410,0.00000000,
3.7200,0.1713,-0.7945,-0.2355,-0.4432,1.2627,-0.7958,0.2458,-0.3040,-0.0498,49.23789101,-123.03210410,0.00000000,
3.7200,0.2267,-0.8023,-0.2340,-0.4432,1.2627,-0.7958,0.2458,-0.3040,-0.0498,49.23789101,-123.03210410,0.00000000,
3.7210,0.2653,-0.7843,-0.2870,-0.4432,1.2627,-0.7958,0.2458,-0.3040,-0.0498,49.23789101,-123.03210410,0.00000000,
3.7210,0.3116,-0.7935,-0.3435,-0.4432,1.2627,-0.7958,0.2458,-0.3040,-0.0498,49.23789101,-123.03210410,0.00000000,
3.7680,0.3116,-0.7935,-0.3435,-0.4432,1.2627,-0.7958,0.0647,-0.1151,-0.2371,49.23789101,-123.03210410,0.00000000,
3.7700,0.3116,-0.7935,-0.3435,0.4588,1.1703,-1.9031,0.0647,-0.1151,-0.2371,49.23789101,-123.03210410,0.00000000,
3.7970,0.3116,-0.7935,-0.3435,0.4588,1.1703,-1.9031,0.1613,0.0065,-0.2881,49.23789101,-123.03210410,0.00000000,
3.7980,0.3294,-0.8169,-0.3794,0.4588,1.1703,-1.9031,0.1613,0.0065,-0.2881,49.23789101,-123.03210410,0.00000000,
3.7980,0.2667,-0.8277,-0.3578,0.4588,1.1703,-1.9031,0.1613,0.0065,-0.2881,49.23789101,-123.03210410,0.00000000,
3.7990,0.1877,-0.9262,-0.3021,0.4588,1.1703,-1.9031,0.1613,0.0065,-0.2881,49.23789101,-123.03210410,0.00000000,
3.8000,0.0751,-1.0860,-0.3160,0.4588,1.1703,-1.9031,0.1613,0.0065,-0.2881,49.23789101,-123.03210410,0.00000000,
3.8380,0.0751,-1.0860,-0.3160,-1.3450,-0.7512,-1.6835,0.1613,0.0065,-0.2881,49.23789101,-123.03210410,0.00000000,
3.8740,0.0751,-1.0860,-0.3160,-1.3450,-0.7512,-1.6835,-0.1140,-0.3006,-0.0713,49.23789101,-123.03210410,0.00000000,
3.8750,0.0751,-1.0860,-0.3160,-0.8232,-0.2078,-2.7947,-0.1140,-0.3006,-0.0713,49.23789101,-123.03210410,0.00000000,
3.8770,0.0309,-1.1119,-0.3917,-0.8232,-0.2078,-2.7947,-0.1140,-0.3006,-0.0713,49.23789101,-123.03210410,0.00000000,
3.8780,0.1132,-0.9764,-0.4990,-0.8232,-0.2078,-2.7947,-0.1140,-0.3006,-0.0713,49.23789101,-123.03210410,0.00000000,
3.8790,0.2633,-0.8585,-0.4889,-0.8232,-0.2078,-2.7947,-0.1140,-0.3006,-0.0713,49.23789101,-123.03210410,0.00000000,
3.8800,0.3597,-0.9097,-0.3558,-0.8232,-0.2078,-2.7947,-0.1140,-0.3006,-0.0713,49.23789101,-123.03210410,0.00000000,
3.9470,0.3859,-1.0674,-0.2908,-0.8232,-0.2078,-2.7947,-0.1140,-0.3006,-0.0713,49.23789101,-123.03210410,0.00000000,
3.9490,0.3111,-1.2092,-0.2649,-0.8232,-0.2078,-2.7947,-0.1140,-0.3006,-0.0713,49.23789101,-123.03210410,0.00000000,
3.9500,0.2414,-1.3488,-0.2819,-0.8232,-0.2078,-2.7947,-0.1140,-0.3006,-0.0713,49.23789101,-123.03210410,0.00000000,
3.9510,0.2356,-1.2492,-0.2598,-0.8232,-0.2078,-2.7947,-0.1140,-0.3006,-0.0713,49.23789101,-123.03210410,0.00000000,
3.9520,0.2356,-1.2492,-0.2598,0.6445,-2.1856,-0.6971,-0.1140,-0.3006,-0.0713,49.23789101,-123.03210410,0.00000000,
3.9530,0.2356,-1.2492,-0.2598,0.6445,-2.1856,-0.6971,-0.4153,-0.8963,-0.1904,49.23789101,-123.03210410,0.00000000,
3.9980,0.2356,-1.2492,-0.2598,0.6445,-2.1856,-0.6971,-0.1639,-0.3024,-0.0374,49.23789101,-123.03210410,0.00000000,
4.0000,0.2356,-1.2492,-0.2598,-0.7276,-1.9904,0.8067,-0.1639,-0.3024,-0.0374,49.23789101,-123.03210410,0.00000000,
4.0250,0.1821,-0.9729,-0.0633,-0.7276,-1.9904,0.8067,-0.1639,-0.3024,-0.0374,49.23789101,-123.03210410,0.00000000,
4.0270,0.0991,-0.9234,0.1778,-0.7276,-1.9904,0.8067,-0.1639,-0.3024,-0.0374,49.23789101,-123.03210410,0.00000000,
4.0280,0.1229,-0.9448,0.3342,-0.7276,-1.9904,0.8067,-0.1639,-0.3024,-0.0374,49.23789101,-123.03210410,0.00000000,
4.0670,0.1229,-0.9448,0.3342,-0.7276,-1.9904,0.8067,0.2645,0.3719,0.0202,49.23789101,-123.03210410,0.00000000,
4.0690,0.1229,-0.9448,0.3342,-1.1886,0.3435,4.8392,0.2645,0.3719,0.0202,49.23789101,-123.03210410,0.00000000,
4.1050,0.1229,-0.9448,0.3342,-1.1886,0.3435,4.8392,0.8680,-0.1069,0.0527,49.23789101,-123.03210410,0.00000000,
4.1070,0.1714,-0.8482,0.3116,-1.1886,0.3435,4.8392,0.8680,-0.1069,0.0527,49.23789101,-123.03210410,0.00000000,
4.1080,0.2163,-0.8039,0.3272,-1.1886,0.3435,4.8392,0.8680,-0.1069,0.0527,49.23789101,-123.03210410,0.00000000,
4.1090,0.2222,-0.9196,0.2824,-1.1886,0.3435,4.8392,0.8680,-0.1069,0.0527,49.23789101,-123.03210410,0.00000000,
4.1100,0.1901,-0.9965,0.1275,-1.1886,0.3435,4.8392,0.8680,-0.1069,0.0527,49.23789101,-123.03210410,0.00000000,
4.1110,0.1901,-0.9965,0.1275,-0.6438,-0.1089,3.3035,0.8680,-0.1069,0.0527,49.23789101,-123.03210410,0.00000000,
4.1480,0.1901,-0.9965,0.1275,-0.6438,-0.1089,3.3035,0.0766,0.2638,0.1689,49.23789101,-123.03210410,0.00000000,
4.1640,0.1901,-0.9965,0.1275,-1.6006,-0.0222,-0.2897,0.0766,0.2638,0.1689,49.23789101,-123.03210410,0.00000000,
4.1810,0.1316,-1.0062,0.0191,-1.6006,-0.0222,-0.2897,0.0766,0.2638,0.1689,49.23789101,-123.03210410,0.00000000,
4.1820,0.0624,-0.9753,-0.1163,-1.6006,-0.0222,-0.2897,0.0766,0.2638,0.1689,49.23789101,-123.03210410,0.00000000,
4.1830,0.0643,-0.8987,-0.2347,-1.6006,-0.0222,-0.2897,0.0766,0.2638,0.1689,49.23789101,-123.03210410,0.00000000,
4.1840,0.2184,-0.8358,-0.2501,-1.6006,-0.0222,-0.2897,0.0766,0.2638,0.1689,49.23789101,-123.03210410,0.00000000,
4.2270,0.2184,-0.8358,-0.2501,-1.6006,-0.0222,-0.2897,0.1736,0.4761,0.0795,49.23789101,-123.03210410,0.00000000,
4.2280,0.2184,-0.8358,-0.2501,0.5335,1.5063,-0.3651,0.1736,0.4761,0.0795,49.23789101,-123.03210410,0.00000000,
4.2580,0.3294,-0.7875,-0.1679,0.5335,1.5063,-0.3651,0.1736,0.4761,0.0795,49.23789101,-123.03210410,0.00000000,
4.2590,0.3180,-0.7624,-0.1110,0.5335,1.5063,-0.3651,0.1736,0.4761,0.0795,49.23789101,-123.03210410,0.00000000,
4.2600,0.2991,-0.7725,-0.0849,0.5335,1.5063,-0.3651,0.1736,0.4761,0.0795,49.23789101,-123.03210410,0.00000000,
4.2610,0.2795,-0.8078,-0.0970,0.5335,1.5063,-0.3651,0.1736,0.4761,0.0795,49.23789101,-123.03210410,0.00000000,
4.3070,0.2795,-0.8078,-0.0970,0.5335,1.5063,-0.3651,0.4869,0.5690,0.1054,49.23789101,-123.03210410,0.00000000,
4.3080,0.2795,-0.8078,-0.0970,0.3458,0.9565,-0.5681,0.4869,0.5690,0.1054,49.23789101,-123.03210410,0.00000000,
4.3360,0.2795,-0.8078,-0.0970,0.3458,0.9565,-0.5681,0.1114,0.5450,0.1100,49.23789101,-123.03210410,0.00000000,
4.3370,0.2879,-0.8649,-0.1572,0.3458,0.9565,-0.5681,0.1114,0.5450,0.1100,49.23789101,-123.03210410,0.00000000,
4.3370,0.2873,-0.8951,-0.2296,0.3458,0.9565,-0.5681,0.1114,0.5450,0.1100,49.23789101,-123.03210410,0.00000000,
4.3380,0.2761,-0.8794,-0.2163,0.3458,0.9565,-0.5681,0.1114,0.5450,0.1100,49.23789101,-123.03210410,0.00000000,
4.3390,0.2433,-0.8638,-0.2105,0.3458,0.9565,-0.5681,0.1114,0.5450,0.1100,49.23789101,-123.03210410,0.00000000,
4.3770,0.2433,-0.8638,-0.2105,0.0576,0.6696,-1.4910,0.1114,0.5450,0.1100,49.23789101,-123.03210410,0.00000000,
4.4140,0.2433,-0.8638,-0.2105,0.0576,0.6696,-1.4910,-0.0274,0.6402,0.1499,49.23789101,-123.03210410,0.00000000,
4.4150,0.2433,-0.8638,-0.2105,-0.4622,1.0438,-2.0060,-0.0274,0.6402,0.1499,49.23789101,-123.03210410,0.00000000,
4.4160,0.2048,-0.8370,-0.2379,-0.4622,1.0438,-2.0060,-0.0274,0.6402,0.1499,49.23789101,-123.03210410,0.00000000,
4.4160,0.1835,-0.8227,-0.2779,-0.4622,1.0438,-2.0060,-0.0274,0.6402,0.1499,49.23789101,-123.03210410,0.00000000,
4.4170,0.1968,-0.8241,-0.2713,-0.4622,1.0438,-2.0060,-0.0274,0.6402,0.1499,49.23789101,-123.03210410,0.00000000,
4.4180,0.2219,-0.8678,-0.2663,-0.4622,1.0438,-2.0060,-0.0274,0.6402,0.1499,49.23789101,-123.03210410,0.00000000,
4.4570,0.2219,-0.8678,-0.2663,-0.4622,1.0438,-2.0060,-0.2580,0.5535,0.1354,49.23789101,-123.03210410,0.00000000,
4.4580,0.2219,-0.8678,-0.2663,1.5065,-0.0335,-0.7225,-0.2580,0.5535,0.1354,49.23789101,-123.03210410,0.00000000,
4.4920,0.3326,-0.9075,-0.1977,1.5065,-0.0335,-0.7225,-0.2580,0.5535,0.1354,49.23789101,-123.03210410,0.00000000,
4.4930,0.4728,-0.9716,-0.0658,1.5065,-0.0335,-0.7225,-0.2580,0.5535,0.1354,49.23789101,-123.03210410,0.00000000,
4.4940,0.5121,-1.0150,-0.1179,1.5065,-0.0335,-0.7225,-0.2580,0.5535,0.1354,49.23789101,-123.03210410,0.00000000,
4.4950,0.4636,-1.0491,-0.2102,1.5065,-0.0335,-0.7225,-0.2580,0.5535,0.1354,49.23789101,-123.03210410,0.00000000,
4.5370,0.4636,-1.0491,-0.2102,1.5065,-0.0335,-0.7225,-0.1492,0.5191,-0.0896,49.23789101,-123.03210410,0.00000000,
4.5380,0.4636,-1.0491,-0.2102,1.6609,-1.5943,-1.4826,-0.1492,0.5191,-0.0896,49.23789101,-123.03210410,0.00000000,
4.5700,0.4636,-1.0491,-0.2102,1.6609,-1.5943,-1.4826,-0.5087,0.3774,-0.0869,49.23789101,-123.03210410,0.00000000,
4.5710,0.3834,-1.1393,-0.2625,1.6609,-1.5943,-1.4826,-0.5087,0.3774,-0.0869,49.23789101,-123.03210410,0.00000000,
4.5720,0.3148,-1.2222,-0.2699,1.6609,-1.5943,-1.4826,-0.5087,0.3774,-0.0869,49.23789101,-123.03210410,0.00000000,
4.5730,0.3173,-1.2806,-0.1390,1.6609,-1.5943,-1.4826,-0.5087,0.3774,-0.0869,49.23789101,-123.03210410,0.00000000,
4.5730,0.3585,-1.2855,0.0678,1.6609,-1.5943,-1.4826,-0.5087,0.3774,-0.0869,49.23789101,-123.03210410,0.00000000,
4.6170,0.3585,-1.2855,0.0678,0.7339,-3.1701,0.5459,-0.5087,0.3774,-0.0869,49.23789101,-123.03210410,0.00000000,
4.6480,0.3585,-1.2855,0.0678,0.7339,-3.1701,0.5459,-0.4185,-0.0592,0.0173,49.23789101,-123.03210410,0.00000000,
4.6490,0.3166,-1.1687,0.1009,0.7339,-3.1701,0.5459,-0.4185,-0.0592,0.0173,49.23789101,-123.03210410,0.00000000,
4.6500,0.1582,-1.0361,0.0279,0.7339,-3.1701,0.5459,-0.4185,-0.0592,0.0173,49.23789101,-123.03210410,0.00000000,
4.6510,0.0076,-0.9378,0.0844,0.7339,-3.1701,0.5459,-0.4185,-0.0592,0.0173,49.23789101,-123.03210410,0.00000000,
4.6520,-0.1015,-0.8562,0.1764,0.7339,-3.1701,0.5459,-0.4185,-0.0592,0.0173,49.23789101,-123.03210410,0.00000000,
4.6520,-0.1015,-0.8562,0.1764,-1.5931,-0.5092,1.9432,-0.4185,-0.0592,0.0173,49.23789101,-123.03210410,0.00000000,
4.7170,-0.1015,-0.8562,0.1764,-1.5931,-0.5092,1.9432,-0.3472,0.8117,0.3783,49.23789101,-123.03210410,0.00000000,
4.7190,-0.1015,-0.8562,0.1764,-3.7059,-0.3091,3.5590,-0.3472,0.8117,0.3783,49.23789101,-123.03210410,0.00000000,
4.7200,-0.1551,-0.8959,0.2561,-3.7059,-0.3091,3.5590,-0.3472,0.8117,0.3783,49.23789101,-123.03210410,0.00000000,
4.7210,-0.1745,-1.0327,0.2713,-3.7059,-0.3091,3.5590,-0.3472,0.8117,0.3783,49.23789101,-123.03210410,0.00000000,
4.7220,-0.0586,-1.1667,0.1693,-3.7059,-0.3091,3.5590,-0.3472,0.8117,0.3783,49.23789101,-123.03210410,0.00000000,
4.7670,-0.0586,-1.1667,0.1693,-3.7059,-0.3091,3.5590,0.3351,0.0238,0.2780,49.23789101,-123.03210410,0.00000000,
4.7680,-0.0586,-1.1667,0.1693,-0.7776,-0.3421,-0.6721,0.3351,0.0238,0.2780,49.23789101,-123.03210410,0.00000000,
4.7970,0.0795,-1.0172,-0.0883,-0.7776,-0.3421,-0.6721,0.3351,0.0238,0.2780,49.23789101,-123.03210410,0.00000000,
4.7980,0.2171,-0.9077,-0.2866,-0.7776,-0.3421,-0.6721,0.3351,0.0238,0.2780,49.23789101,-123.03210410,0.00000000,
4.7990,0.1945,-0.8605,-0.3898,-0.7776,-0.3421,-0.6721,0.3351,0.0238,0.2780,49.23789101,-123.03210410,0.00000000,
4.7990,0.1269,-0.8195,-0.3385,-0.7776,-0.3421,-0.6721,0.3351,0.0238,0.2780,49.23789101,-123.03210410,0.00000000,
4.8370,0.1269,-0.8195,-0.3385,-0.7776,-0.3421,-0.6721,-0.3287,-0.6323,0.3523,49.23789101,-123.03210410,0.00000000,
4.8380,0.1269,-0.8195,-0.3385,-0.7879,1.5893,-1.3598,-0.3287,-0.6323,0.3523,49.23789101,-123.03210410,0.00000000,
4.8730,0.1269,-0.8195,-0.3385,-0.7879,1.5893,-1.3598,-0.3880,-0.2681,0.2934,49.23789101,-123.03210410,0.00000000,
4.8740,0.0705,-0.7538,-0.2288,-0.7879,1.5893,-1.3598,-0.3880,-0.2681,0.2934,49.23789101,-123.03210410,0.00000000,
4.8750,0.0548,-0.7014,-0.1153,-0.7879,1.5893,-1.3598,-0.3880,-0.2681,0.2934,49.23789101,-123.03210410,0.00000000,
4.8770,0.0720,-0.6716,-0.0579,-0.7879,1.5893,-1.3598,-0.3880,-0.2681,0.2934,49.23789101,-123.03210410,0.00000000,
4.8780,0.1178,-0.6869,-0.0445,-0.7879,1.5893,-1.3598,-0.3880,-0.2681,0.2934,49.23789101,-123.03210410,0.00000000,
4.9170,0.1178,-0.6869,-0.0445,-0.7088,2.5273,0.8849,-0.3880,-0.2681,0.2934,49.23789101,-123.03210410,0.00000000,
4.9360,0.1178,-0.6869,-0.0445,-0.7088,2.5273,0.8849,0.2123,-0.2941,0.0219,49.23789101,-123.03210410,0.00000000,
4.9510,0.1478,-0.7238,-0.1084,-0.7088,2.5273,0.8849,0.2123,-0.2941,0.0219,49.23789101,-123.03210410,0.00000000,
4.9520,0.1688,-0.7664,-0.2223,-0.7088,2.5273,0.8849,0.2123,-0.2941,0.0219,49.23789101,-123.03210410,0.00000000,
4.9530,0.1951,-0.8072,-0.3153,-0.7088,2.5273,0.8849,0.2123,-0.2941,0.0219,49.23789101,-123.03210410,0.00000000,
4.9540,0.2384,-0.8345,-0.3900,-0.7088,2.5273,0.8849,0.2123,-0.2941,0.0219,49.23789101,-123.03210410,0.00000000,
4.9550,0.2384,-0.8345,-0.3900,0.1776,1.5383,-1.1502,0.2123,-0.2941,0.0219,49.23789101,-123.03210410,0.00000000,
4.9970,0.2384,-0.8345,-0.3900,0.1776,1.5383,-1.1502,0.0324,-0.1852,-0.2112,49.23789101,-123.03210410,0.00000000,
4.9990,0.2384,-0.8345,-0.3900,0.8992,0.7428,-2.1165,0.0324,-0.1852,-0.2112,49.23789101,-123.03210410,0.00000000,
5.0290,0.2850,-0.8287,-0.4209,0.8992,0.7428,-2.1165,0.0324,-0.1852,-0.2112,49.23789101,-123.03210410,0.00000000,
5.0310,0.2893,-0.8695,-0.3396,0.8992,0.7428,-2.1165,0.0324,-0.1852,-0.2112,49.23789101,-123.03210410,0.00000000,
5.0310,0.2096,-0.9833,-0.2539,0.8992,0.7428,-2.1165,0.0324,-0.1852,-0.2112,49.23789101,-123.03210410,0.00000000,
5.0320,0.0702,-1.1459,-0.3695,0.8992,0.7428,-2.1165,0.0324,-0.1852,-0.2112,49.23789101,-123.03210410,0.00000000,
5.0770,0.0702,-1.1459,-0.3695,0.8992,0.7428,-2.1165,0.1177,-0.0015,-0.1849,49.23789101,-123.03210410,0.00000000,
5.0780,0.0702,-1.1459,-0.3695,-0.8605,-1.7647,-2.9456,0.1177,-0.0015,-0.1849,49.23789101,-123.03210410,0.00000000,
5.1060,0.0658,-1.1839,-0.5604,-0.8605,-1.7647,-2.9456,0.1177,-0.0015,-0.1849,49.23789101,-123.03210410,0.00000000,
5.1070,0.1572,-1.0365,-0.5856,-0.8605,-1.7647,-2.9456,0.1177,-0.0015,-0.1849,49.23789101,-123.03210410,0.00000000,
5.1070,0.2005,-1.0149,-0.4300,-0.8605,-1.7647,-2.9456,0.1177,-0.0015,-0.1849,49.23789101,-123.03210410,0.00000000,
5.1470,0.2005,-1.0149,-0.4300,-0.8605,-1.7647,-2.9456,-0.6362,-0.7141,-0.1622,49.23789101,-123.03210410,0.00000000,
5.1480,0.2005,-1.0149,-0.4300,0.3816,-1.5370,-1.6126,-0.6362,-0.7141,-0.1622,49.23789101,-123.03210410,0.00000000,
5.1830,0.2005,-1.0149,-0.4300,0.3816,-1.5370,-1.6126,-0.2122,-0.4721,-0.1677,49.23789101,-123.03210410,0.00000000,
5.1850,0.2569,-1.1248,-0.3128,0.3816,-1.5370,-1.6126,-0.2122,-0.4721,-0.1677,49.23789101,-123.03210410,0.00000000,
5.1860,0.2707,-1.2676,-0.1240,0.3816,-1.5370,-1.6126,-0.2122,-0.4721,-0.1677,49.23789101,-123.03210410,0.00000000,
5.1870,0.2127,-1.3457,-0.1003,0.3816,-1.5370,-1.6126,-0.2122,-0.4721,-0.1677,49.23789101,-123.03210410,0.00000000,
5.1880,0.1797,-1.2975,-0.2539,0.3816,-1.5370,-1.6126,-0.2122,-0.4721,-0.1677,49.23789101,-123.03210410,0.00000000,
5.1880,0.1797,-1.2975,-0.2539,0.0730,-3.4424,0.5066,-0.2122,-0.4721,-0.1677,49.23789101,-123.03210410,0.00000000,
5.2470,0.1797,-1.2975,-0.2539,0.0730,-3.4424,0.5066,-0.2460,0.7790,-0.3229,49.23789101,-123.03210410,0.00000000,
5.2480,0.1797,-1.2975,-0.2539,-1.4382,-1.1432,3.3529,-0.2460,0.7790,-0.3229,49.23789101,-123.03210410,0.00000000,
5.2610,0.1629,-1.1068,-0.1102,-1.4382,-1.1432,3.3529,-0.2460,0.7790,-0.3229,49.23789101,-123.03210410,0.00000000,
5.2630,0.0771,-1.0416,0.1476,-1.4382,-1.1432,3.3529,-0.2460,0.7790,-0.3229,49.23789101,-123.03210410,0.00000000,
5.2640,0.0392,-1.0542,0.1914,-1.4382,-1.1432,3.3529,-0.2460,0.7790,-0.3229,49.23789101,-123.03210410,0.00000000,
5.2650,0.0847,-1.0208,0.1519,-1.4382,-1.1432,3.3529,-0.2460,0.7790,-0.3229,49.23789101,-123.03210410,0.00000000,
5.3060,0.0847,-1.0208,0.1519,-1.4382,-1.1432,3.3529,0.3422,-0.2566,-0.2215,49.23789101,-123.03210410,0.00000000,
5.3080,0.0847,-1.0208,0.1519,-0.8921,0.7445,3.9432,0.3422,-0.2566,-0.2215,49.23789101,-123.03210410,0.00000000,
5.3400,0.1377,-0.9125,0.2008,-0.8921,0.7445,3.9432,0.3422,-0.2566,-0.2215,49.23789101,-123.03210410,0.00000000,
5.3420,0.1515,-0.7821,0.2542,-0.8921,0.7445,3.9432,0.3422,-0.2566,-0.2215,49.23789101,-123.03210410,0.00000000,
5.3430,0.1400,-0.7797,0.2308,-0.8921,0.7445,3.9432,0.3422,-0.2566,-0.2215,49.23789101,-123.03210410,0.00000000,
5.3440,0.1192,-0.8839,0.1001,-0.8921,0.7445,3.9432,0.3422,-0.2566,-0.2215,49.23789101,-123.03210410,0.00000000,
5.3870,0.1192,-0.8839,0.1001,-0.8921,0.7445,3.9432,0.5351,0.1271,-0.1474,49.23789101,-123.03210410,0.00000000,
5.3880,0.1192,-0.8839,0.1001,-1.0351,0.2244,1.4913,0.5351,0.1271,-0.1474,49.23789101,-123.03210410,0.00000000,
5.4170,0.1192,-0.8839,0.1001,-1.0351,0.2244,1.4913,0.0028,0.4335,-0.1073,49.23789101,-123.03210410,0.00000000,
5.4180,0.1192,-0.8839,0.1001,-0.1813,0.9937,-1.6360,0.0028,0.4335,-0.1073,49.23789101,-123.03210410,0.00000000,
5.4190,0.1239,-0.9491,-0.0819,-0.1813,0.9937,-1.6360,0.0028,0.4335,-0.1073,49.23789101,-123.03210410,0.00000000,
5.4200,0.1703,-0.9968,-0.2863,-0.1813,0.9937,-1.6360,0.0028,0.4335,-0.1073,49.23789101,-123.03210410,0.00000000,
5.4210,0.2132,-0.9038,-0.3721,-0.1813,0.9937,-1.6360,0.0028,0.4335,-0.1073,49.23789101,-123.03210410,0.00000000,
5.4220,0.2440,-0.7430,-0.2934,-0.1813,0.9937,-1.6360,0.0028,0.4335,-0.1073,49.23789101,-123.03210410,0.00000000,
5.4950,0.2440,-0.7430,-0.2934,-0.1813,0.9937,-1.6360,0.2295,0.0293,0.0448,49.23789101,-123.03210410,0.00000000,
5.4990,0.2440,-0.7430,-0.2934,0.1770,1.9884,-0.1711,0.2295,0.0293,0.0448,49.23789101,-123.03210410,0.00000000,
5.5010,0.2627,-0.7083,-0.2089,0.1770,1.9884,-0.1711,0.2295,0.0293,0.0448,49.23789101,-123.03210410,0.00000000,
5.5030,0.2623,-0.7250,-0.1711,0.1770,1.9884,-0.1711,0.2295,0.0293,0.0448,49.23789101,-123.03210410,0.00000000,
5.5040,0.2496,-0.7234,-0.1353,0.1770,1.9884,-0.1711,0.2295,0.0293,0.0448,49.23789101,-123.03210410,0.00000000,
5.5080,0.2659,-0.7732,-0.1053,0.1770,1.9884,-0.1711,0.2295,0.0293,0.0448,49.23789101,-123.03210410,0.00000000,
5.5360,0.2659,-0.7732,-0.1053,0.1770,1.9884,-0.1711,0.2055,0.0443,0.0047,49.23789101,-123.03210410,0.00000000,
5.5380,0.2659,-0.7732,-0.1053,0.0805,1.2056,0.0391,0.2055,0.0443,0.0047,49.23789101,-123.03210410,0.00000000,
5.5730,0.2645,-0.8067,-0.0982,0.0805,1.2056,0.0391,0.2055,0.0443,0.0047,49.23789101,-123.03210410,0.00000000,
5.5750,0.2452,-0.8180,-0.1259,0.0805,1.2056,0.0391,0.2055,0.0443,0.0047,49.23789101,-123.03210410,0.00000000,
5.5760,0.2074,-0.8091,-0.1859,0.0805,1.2056,0.0391,0.2055,0.0443,0.0047,49.23789101,-123.03210410,0.00000000,
5.5770,0.1749,-0.8003,-0.2475,0.0805,1.2056,0.0391,0.2055,0.0443,0.0047,49.23789101,-123.03210410,0.00000000,
5.6160,0.1749,-0.8003,-0.2475,0.0805,1.2056,0.0391,0.0072,0.5468,0.0534,49.23789101,-123.03210410,0.00000000,
5.6180,0.1749,-0.8003,-0.2475,-0.6016,1.5216,-1.3604,0.0072,0.5468,0.0534,49.23789101,-123.03210410,0.00000000,
5.6460,0.1723,-0.7604,-0.2727,-0.6016,1.5216,-1.3604,0.0072,0.5468,0.0534,49.23789101,-123.03210410,0.00000000,
5.6480,0.1985,-0.7145,-0.2963,-0.6016,1.5216,-1.3604,0.0072,0.5468,0.0534,49.23789101,-123.03210410,0.00000000,
5.6490,0.2413,-0.7625,-0.2913,-0.6016,1.5216,-1.3604,0.0072,0.5468,0.0534,49.23789101,-123.03210410,0.00000000,
5.6870,0.2413,-0.7625,-0.2913,-0.6016,1.5216,-1.3604,-0.0338,0.4758,0.1622,49.23789101,-123.03210410,0.00000000,
5.6890,0.2413,-0.7625,-0.2913,0.3256,1.1056,-1.7833,-0.0338,0.4758,0.1622,49.23789101,-123.03210410,0.00000000,
5.7190,0.2413,-0.7625,-0.2913,0.3256,1.1056,-1.7833,-0.1916,0.2767,0.0775,49.23789101,-123.03210410,0.00000000,
5.7210,0.2413,-0.7625,-0.2913,2.0653,-0.4828,-0.9737,-0.1916,0.2767,0.0775,49.23789101,-123.03210410,0.00000000,
5.7240,0.2899,-0.8696,-0.3063,2.0653,-0.4828,-0.9737,-0.1916,0.2767,0.0775,49.23789101,-123.03210410,0.00000000,
5.7260,0.3737,-0.9379,-0.2890,2.0653,-0.4828,-0.9737,-0.1916,0.2767,0.0775,49.23789101,-123.03210410,0.00000000,
5.7280,0.4558,-0.9775,-0.2197,2.0653,-0.4828,-0.9737,-0.1916,0.2767,0.0775,49.23789101,-123.03210410,0.00000000,
5.7290,0.4724,-0.9825,-0.2095,2.0653,-0.4828,-0.9737,-0.1916,0.2767,0.0775,49.23789101,-123.03210410,0.00000000,
5.7670,0.4724,-0.9825,-0.2095,2.0653,-0.4828,-0.9737,-0.2666,0.1621,-0.0468,49.23789101,-123.03210410,0.00000000,
5.7990,0.4233,-1.0309,-0.2178,2.0653,-0.4828,-0.9737,-0.2666,0.1621,-0.0468,49.23789101,-123.03210410,0.00000000,
5.8000,0.3737,-1.1957,-0.1778,2.0653,-0.4828,-0.9737,-0.2666,0.1621,-0.0468,49.23789101,-123.03210410,0.00000000,
5.8010,0.3321,-1.3669,-0.1210,2.0653,-0.4828,-0.9737,-0.2666,0.1621,-0.0468,49.23789101,-123.03210410,0.00000000,
5.8020,0.3323,-1.3766,-0.1269,2.0653,-0.4828,-0.9737,-0.2666,0.1621,-0.0468,49.23789101,-123.03210410,0.00000000,
5.8030,0.3323,-1.3766,-0.1269,1.1206,-3.2476,-0.1220,-0.2666,0.1621,-0.0468,49.23789101,-123.03210410,0.00000000,
5.8460,0.3323,-1.3766,-0.1269,1.1206,-3.2476,-0.1220,-0.1840,0.0335,-0.0507,49.23789101,-123.03210410,0.00000000,
5.8480,0.3323,-1.3766,-0.1269,-0.2358,-2.8343,0.1213,-0.1840,0.0335,-0.0507,49.23789101,-123.03210410,0.00000000,
5.8760,0.3031,-1.2760,-0.1848,-0.2358,-2.8343,0.1213,-0.1840,0.0335,-0.0507,49.23789101,-123.03210410,0.00000000,
5.8770,0.1620,-1.1766,-0.1321,-0.2358,-2.8343,0.1213,-0.1840,0.0335,-0.0507,49.23789101,-123.03210410,0.00000000,
5.8780,0.0540,-1.0639,-0.0197,-0.2358,-2.8343,0.1213,-0.1840,0.0335,-0.0507,49.23789101,-123.03210410,0.00000000,
5.8790,0.0127,-0.9943,0.0579,-0.2358,-2.8343,0.1213,-0.1840,0.0335,-0.0507,49.23789101,-123.03210410,0.00000000,
5.9160,0.0127,-0.9943,0.0579,-0.2358,-2.8343,0.1213,-0.3401,-0.3024,0.0622,49.23789101,-123.03210410,0.00000000,
5.9170,0.0127,-0.9943,0.0579,-2.1619,-0.1814,2.5887,-0.3401,-0.3024,0.0622,49.23789101,-123.03210410,0.00000000,
5.9520,0.0127,-0.9943,0.0579,-2.1619,-0.1814,2.5887,0.0473,0.0145,0.1153,49.23789101,-123.03210410,0.00000000,
5.9540,0.0080,-0.9097,0.1314,-2.1619,-0.1814,2.5887,0.0473,0.0145,0.1153,49.23789101,-123.03210410,0.00000000,
5.9550,0.0074,-0.8495,0.1878,-2.1619,-0.1814,2.5887,0.0473,0.0145,0.1153,49.23789101,-123.03210410,0.00000000,
5.9560,0.0009,-0.8464,0.1856,-2.1619,-0.1814,2.5887,0.0473,0.0145,0.1153,49.23789101,-123.03210410,0.00000000,
5.9570,0.0213,-0.8605,0.1301,-2.1619,-0.1814,2.5887,0.0473,0.0145,0.1153,49.23789101,-123.03210410,0.00000000,
5.9820,0.0213,-0.8605,0.1301,-2.0105,0.8119,2.9255,0.0473,0.0145,0.1153,49.23789101,-123.03210410,0.00000000,
6.0260,0.0910,-0.8607,-0.0038,-2.0105,0.8119,2.9255,0.0473,0.0145,0.1153,49.23789101,-123.03210410,0.00000000,
6.0280,0.1745,-0.8502,-0.1160,-2.0105,0.8119,2.9255,0.0473,0.0145,0.1153,49.23789101,-123.03210410,0.00000000,
6.0290,0.2408,-0.8188,-0.1880,-2.0105,0.8119,2.9255,0.0473,0.0145,0.1153,49.23789101,-123.03210410,0.00000000,
6.0300,0.2473,-0.7816,-0.2151,-2.0105,0.8119,2.9255,0.0473,0.0145,0.1153,49.23789101,-123.03210410,0.00000000,
6.0310,0.2473,-0.7816,-0.2151,-0.1883,1.0420,-0.1420,0.0473,0.0145,0.1153,49.23789101,-123.03210410,0.00000000,
6.0320,0.2473,-0.7816,-0.2151,-0.1883,1.0420,-0.1420,0.4372,0.1399,0.1439,49.23789101,-123.03210410,0.00000000,
6.0760,0.2473,-0.7816,-0.2151,-0.1883,1.0420,-0.1420,0.4348,0.1672,0.0649,49.23789101,-123.03210410,0.00000000,
6.0780,0.2473,-0.7816,-0.2151,-0.5575,2.1884,-1.2679,0.4348,0.1672,0.0649,49.23789101,-123.03210410,0.00000000,
6.1030,0.1829,-0.6988,-0.2371,-0.5575,2.1884,-1.2679,0.4348,0.1672,0.0649,49.23789101,-123.03210410,0.00000000,
6.1050,0.1224,-0.6813,-0.2299,-0.5575,2.1884,-1.2679,0.4348,0.1672,0.0649,49.23789101,-123.03210410,0.00000000,
6.1060,0.1043,-0.8025,-0.2503,-0.5575,2.1884,-1.2679,0.4348,0.1672,0.0649,49.23789101,-123.03210410,0.00000000,
6.1460,0.1043,-0.8025,-0.2503,-0.5575,2.1884,-1.2679,0.1748,-0.3283,0.0216,49.23789101,-123.03210410,0.00000000,
6.1470,0.1043,-0.8025,-0.2503,-0.4072,0.6721,-1.8517,0.1748,-0.3283,0.0216,49.23789101,-123.03210410,0.00000000,
6.1820,0.1441,-0.8984,-0.2989,-0.4072,0.6721,-1.8517,0.1748,-0.3283,0.0216,49.23789101,-123.03210410,0.00000000,
6.1840,0.2024,-0.8704,-0.3208,-0.4072,0.6721,-1.8517,0.1748,-0.3283,0.0216,49.23789101,-123.03210410,0.00000000,
6.1840,0.2253,-0.8391,-0.2614,-0.4072,0.6721,-1.8517,0.1748,-0.3283,0.0216,49.23789101,-123.03210410,0.00000000,
6.1850,0.2267,-0.8522,-0.2427,-0.4072,0.6721,-1.8517,0.1748,-0.3283,0.0216,49.23789101,-123.03210410,0.00000000,
6.2260,0.2267,-0.8522,-0.2427,-0.4072,0.6721,-1.8517,0.1398,-0.4169,-0.1384,49.23789101,-123.03210410,0.00000000,
6.2280,0.2267,-0.8522,-0.2427,0.0216,1.1806,-1.2900,0.1398,-0.4169,-0.1384,49.23789101,-123.03210410,0.00000000,
6.2610,0.2267,-0.8522,-0.2427,-0.4666,1.9884,-1.6894,0.1398,-0.4169,-0.1384,49.23789101,-123.03210410,0.00000000,
6.2630,0.2267,-0.8522,-0.2427,-0.4666,1.9884,-1.6894,0.0853,-0.1797,-0.2101,49.23789101,-123.03210410,0.00000000,
6.2650,0.2198,-0.8086,-0.2246,-0.4666,1.9884,-1.6894,0.0853,-0.1797,-0.2101,49.23789101,-123.03210410,0.00000000,
6.2670,0.1992,-0.7098,-0.2520,-0.4666,1.9884,-1.6894,0.0853,-0.1797,-0.2101,49.23789101,-123.03210410,0.00000000,
6.2690,0.1814,-0.6716,-0.2928,-0.4666,1.9884,-1.6894,0.0853,-0.1797,-0.2101,49.23789101,-123.03210410,0.00000000,
6.2700,0.1816,-0.7406,-0.2825,-0.4666,1.9884,-1.6894,0.0853,-0.1797,-0.2101,49.23789101,-123.03210410,0.00000000,
6.3060,0.1816,-0.7406,-0.2825,-0.4666,1.9884,-1.6894,0.0848,-0.1581,-0.2737,49.23789101,-123.03210410,0.00000000,
6.3380,0.1593,-0.8693,-0.2345,-0.4666,1.9884,-1.6894,0.0848,-0.1581,-0.2737,49.23789101,-123.03210410,0.00000000,
6.3400,0.0860,-0.9425,-0.2434,-0.4666,1.9884,-1.6894,0.0848,-0.1581,-0.2737,49.23789101,-123.03210410,0.00000000,
6.3410,0.0704,-0.9406,-0.2957,-0.4666,1.9884,-1.6894,0.0848,-0.1581,-0.2737,49.23789101,-123.03210410,0.00000000,
6.3430,0.1131,-0.8938,-0.3640,-0.4666,1.9884,-1.6894,0.0848,-0.1581,-0.2737,49.23789101,-123.03210410,0.00000000,
6.3440,0.1131,-0.8938,-0.3640,-1.4468,-0.0272,-1.6346,0.0848,-0.1581,-0.2737,49.23789101,-123.03210410,0.00000000,
6.3860,0.1131,-0.8938,-0.3640,-1.4468,-0.0272,-1.6346,-0.2728,-0.0508,-0.1988,49.23789101,-123.03210410,0.00000000,
6.3880,0.1131,-0.8938,-0.3640,-0.8998,0.9187,-2.8748,-0.2728,-0.0508,-0.1988,49.23789101,-123.03210410,0.00000000,
6.4170,0.1407,-0.8514,-0.4309,-0.8998,0.9187,-2.8748,-0.2728,-0.0508,-0.1988,49.23789101,-123.03210410,0.00000000,
6.4180,0.1683,-0.8060,-0.4466,-0.8998,0.9187,-2.8748,-0.2728,-0.0508,-0.1988,49.23789101,-123.03210410,0.00000000,
6.4190,0.2226,-0.7429,-0.3994,-0.8998,0.9187,-2.8748,-0.2728,-0.0508,-0.1988,49.23789101,-123.03210410,0.00000000,
6.4200,0.2849,-0.7336,-0.3754,-0.8998,0.9187,-2.8748,-0.2728,-0.0508,-0.1988,49.23789101,-123.03210410,0.00000000,
6.4560,0.2849,-0.7336,-0.3754,-0.8998,0.9187,-2.8748,-0.5061,-0.2062,-0.2458,49.23789101,-123.03210410,0.00000000,
6.4580,0.2849,-0.7336,-0.3754,0.0078,0.5960,-2.0962,-0.5061,-0.2062,-0.2458,49.23789101,-123.03210410,0.00000000,
6.4920,0.2849,-0.7336,-0.3754,0.0078,0.5960,-2.0962,-0.3132,-0.5210,-0.1819,49.23789101,-123.03210410,0.00000000,
6.4940,0.2772,-0.8828,-0.4088,0.0078,0.5960,-2.0962,-0.3132,-0.5210,-0.1819,49.23789101,-123.03210410,0.00000000,
6.4950,0.2169,-1.2414,-0.2547,0.0078,0.5960,-2.0962,-0.3132,-0.5210,-0.1819,49.23789101,-123.03210410,0.00000000,
6.4960,0.2830,-1.5735,0.0045,0.0078,0.5960,-2.0962,-0.3132,-0.5210,-0.1819,49.23789101,-123.03210410,0.00000000,
6.4960,0.2568,-1.4172,0.3303,0.0078,0.5960,-2.0962,-0.3132,-0.5210,-0.1819,49.23789101,-123.03210410,0.00000000,
6.5370,0.2568,-1.4172,0.3303,-0.0137,-5.0193,3.5638,-0.3132,-0.5210,-0.1819,49.23789101,-123.03210410,0.00000000,
6.5700,0.2568,-1.4172,0.3303,-0.0137,-5.0193,3.5638,0.0267,-0.4080,-0.1128,49.23789101,-123.03210410,0.00000000,
6.5710,0.2801,-1.1683,0.6265,-0.0137,-5.0193,3.5638,0.0267,-0.4080,-0.1128,49.23789101,-123.03210410,0.00000000,
6.5720,0.4451,-1.1369,0.6056,-0.0137,-5.0193,3.5638,0.0267,-0.4080,-0.1128,49.23789101,-123.03210410,0.00000000,
6.5730,0.5783,-1.2346,0.3687,-0.0137,-5.0193,3.5638,0.0267,-0.4080,-0.1128,49.23789101,-123.03210410,0.00000000,
6.5730,0.5298,-1.3217,0.1603,-0.0137,-5.0193,3.5638,0.0267,-0.4080,-0.1128,49.23789101,-123.03210410,0.00000000,
6.5740,0.5298,-1.3217,0.1603,2.1033,-2.7263,6.3346,0.0267,-0.4080,-0.1128,49.23789101,-123.03210410,0.00000000,
6.6160,0.5298,-1.3217,0.1603,2.1033,-2.7263,6.3346,0.7378,0.0981,0.0766,49.23789101,-123.03210410,0.00000000,
6.6170,0.5298,-1.3217,0.1603,-0.8680,-2.7250,-0.2605,0.7378,0.0981,0.0766,49.23789101,-123.03210410,0.00000000,
6.6500,0.2863,-1.2911,-0.0446,-0.8680,-2.7250,-0.2605,0.7378,0.0981,0.0766,49.23789101,-123.03210410,0.00000000,
6.6520,0.0278,-1.1448,-0.2647,-0.8680,-2.7250,-0.2605,0.7378,0.0981,0.0766,49.23789101,-123.03210410,0.00000000,
6.6550,-0.0801,-1.0107,-0.4113,-0.8680,-2.7250,-0.2605,0.7378,0.0981,0.0766,49.23789101,-123.03210410,0.00000000,
6.6560,-0.0311,-0.8504,-0.4002,-0.8680,-2.7250,-0.2605,0.7378,0.0981,0.0766,49.23789101,-123.03210410,0.00000000,
6.6960,-0.0311,-0.8504,-0.4002,-0.8680,-2.7250,-0.2605,0.1425,0.8964,0.1436,49.23789101,-123.03210410,0.00000000,
6.6980,-0.0311,-0.8504,-0.4002,-1.9863,1.3641,-1.7944,0.1425,0.8964,0.1436,49.23789101,-123.03210410,0.00000000,
6.7260,-0.0311,-0.8504,-0.4002,-1.9863,1.3641,-1.7944,-0.0750,0.6164,0.1729,49.23789101,-123.03210410,0.00000000,
6.7280,0.1338,-0.7126,-0.2418,-1.9863,1.3641,-1.7944,-0.0750,0.6164,0.1729,49.23789101,-123.03210410,0.00000000,
6.7280,0.2399,-0.6485,-0.0425,-1.9863,1.3641,-1.7944,-0.0750,0.6164,0.1729,49.23789101,-123.03210410,0.00000000,
6.7290,0.2953,-0.6304,-0.0278,-1.9863,1.3641,-1.7944,-0.0750,0.6164,0.1729,49.23789101,-123.03210410,0.00000000,
6.7300,0.3020,-0.6176,-0.1151,-1.9863,1.3641,-1.7944,-0.0750,0.6164,0.1729,49.23789101,-123.03210410,0.00000000,
6.7530,0.3020,-0.6176,-0.1151,0.3611,2.9798,0.2494,-0.0750,0.6164,0.1729,49.23789101,-123.03210410,0.00000000,
6.7960,0.3020,-0.6176,-0.1151,-0.0372,2.3448,-0.9866,-0.0750,0.6164,0.1729,49.23789101,-123.03210410,0.00000000,
6.7980,0.3020,-0.6176,-0.1151,-0.0372,2.3448,-0.9866,0.1146,0.4614,0.2446,49.23789101,-123.03210410,0.00000000,
6.8000,0.2684,-0.6055,-0.1878,-0.0372,2.3448,-0.9866,0.1146,0.4614,0.2446,49.23789101,-123.03210410,0.00000000,
6.8010,0.2430,-0.6456,-0.1987,-0.0372,2.3448,-0.9866,0.1146,0.4614,0.2446,49.23789101,-123.03210410,0.00000000,
6.8020,0.2323,-0.7249,-0.2002,-0.0372,2.3448,-0.9866,0.1146,0.4614,0.2446,49.23789101,-123.03210410,0.00000000,
6.8460,0.2323,-0.7249,-0.2002,-0.0372,2.3448,-0.9866,0.0559,0.3904,0.2341,49.23789101,-123.03210410,0.00000000,
6.8740,0.2172,-0.7951,-0.1789,-0.0372,2.3448,-0.9866,0.0559,0.3904,0.2341,49.23789101,-123.03210410,0.00000000,
6.8770,0.2342,-0.7922,-0.2001,-0.0372,2.3448,-0.9866,0.0559,0.3904,0.2341,49.23789101,-123.03210410,0.00000000,
6.8790,0.2939,-0.7497,-0.2645,-0.0372,2.3448,-0.9866,0.0559,0.3904,0.2341,49.23789101,-123.03210410,0.00000000,
6.8800,0.3470,-0.7446,-0.3328,-0.0372,2.3448,-0.9866,0.0559,0.3904,0.2341,49.23789101,-123.03210410,0.00000000,
6.8820,0.3470,-0.7446,-0.3328,0.3678,1.5510,-1.4473,0.0559,0.3904,0.2341,49.23789101,-123.03210410,0.00000000,
6.9160,0.3470,-0.7446,-0.3328,0.3678,1.5510,-1.4473,-0.1403,0.4230,0.1936,49.23789101,-123.03210410,0.00000000,
6.9170,0.3470,-0.7446,-0.3328,1.4425,0.7970,-2.6873,-0.1403,0.4230,0.1936,49.23789101,-123.03210410,0.00000000,
6.9460,0.3578,-0.8124,-0.3764,1.4425,0.7970,-2.6873,-0.1403,0.4230,0.1936,49.23789101,-123.03210410,0.00000000,
6.9480,0.3782,-0.8932,-0.3870,1.4425,0.7970,-2.6873,-0.1403,0.4230,0.1936,49.23789101,-123.03210410,0.00000000,
6.9490,0.4323,-0.9314,-0.3539,1.4425,0.7970,-2.6873,-0.1403,0.4230,0.1936,49.23789101,-123.03210410,0.00000000,
6.9510,0.4776,-0.9328,-0.2824,1.4425,0.7970,-2.6873,-0.1403,0.4230,0.1936,49.23789101,-123.03210410,0.00000000,
6.9960,0.4776,-0.9328,-0.2824,1.4425,0.7970,-2.6873,-0.4049,-0.0194,0.0120,49.23789101,-123.03210410,0.00000000,
6.9980,0.4776,-0.9328,-0.2824,2.3216,-0.0403,-1.4166,-0.4049,-0.0194,0.0120,49.23789101,-123.03210410,0.00000000,
7.0170,0.4765,-0.9133,-0.2541,2.3216,-0.0403,-1.4166,-0.4049,-0.0194,0.0120,49.23789101,-123.03210410,0.00000000,
7.0190,0.4490,-1.0098,-0.1844,2.3216,-0.0403,-1.4166,-0.4049,-0.0194,0.0120,49.23789101,-123.03210410,0.00000000,
7.0200,0.4190,-1.2819,-0.0463,2.3216,-0.0403,-1.4166,-0.4049,-0.0194,0.0120,49.23789101,-123.03210410,0.00000000,
7.0560,0.4190,-1.2819,-0.0463,2.3216,-0.0403,-1.4166,-0.4079,-0.2781,-0.1419,49.23789101,-123.03210410,0.00000000,
7.0580,0.4190,-1.2819,-0.0463,1.4730,-3.8336,1.3712,-0.4079,-0.2781,-0.1419,49.23789101,-123.03210410,0.00000000,
7.0920,0.4190,-1.2819,-0.0463,1.4730,-3.8336,1.3712,-0.0494,0.2357,-0.0146,49.23789101,-123.03210410,0.00000000,
7.0940,0.3671,-1.4762,0.0668,1.4730,-3.8336,1.3712,-0.0494,0.2357,-0.0146,49.23789101,-123.03210410,0.00000000,
7.0940,0.2863,-1.2609,0.0195,1.4730,-3.8336,1.3712,-0.0494,0.2357,-0.0146,49.23789101,-123.03210410,0.00000000,
7.0960,0.1320,-1.1362,-0.0891,1.4730,-3.8336,1.3712,-0.0494,0.2357,-0.0146,49.23789101,-123.03210410,0.00000000,
7.0970,-0.0620,-1.2002,-0.0262,1.4730,-3.8336,1.3712,-0.0494,0.2357,-0.0146,49.23789101,-123.03210410,0.00000000,
7.1370,-0.0620,-1.2002,-0.0262,-1.9609,-2.4833,1.0791,-0.0494,0.2357,-0.0146,49.23789101,-123.03210410,0.00000000,
7.1700,-0.0620,-1.2002,-0.0262,-1.9609,-2.4833,1.0791,-0.2287,0.7045,0.4557,49.23789101,-123.03210410,0.00000000,
7.1720,-0.1982,-1.2593,0.0709,-1.9609,-2.4833,1.0791,-0.2287,0.7045,0.4557,49.23789101,-123.03210410,0.00000000,
7.1720,-0.2403,-1.2497,0.2277,-1.9609,-2.4833,1.0791,-0.2287,0.7045,0.4557,49.23789101,-123.03210410,0.00000000,
7.1730,-0.2062,-1.2004,0.3205,-1.9609,-2.4833,1.0791,-0.2287,0.7045,0.4557,49.23789101,-123.03210410,0.00000000,
7.1740,-0.0451,-1.1129,0.1154,-1.9609,-2.4833,1.0791,-0.2287,0.7045,0.4557,49.23789101,-123.03210410,0.00000000,
7.1750,-0.0451,-1.1129,0.1154,-4.0025,-2.7337,3.6143,-0.2287,0.7045,0.4557,49.23789101,-123.03210410,0.00000000,
7.2160,-0.0451,-1.1129,0.1154,-4.0025,-2.7337,3.6143,0.4495,-0.0208,0.3555,49.23789101,-123.03210410,0.00000000,
7.2170,-0.0451,-1.1129,0.1154,0.4182,0.1633,-0.1358,0.4495,-0.0208,0.3555,49.23789101,-123.03210410,0.00000000,
7.2480,0.1942,-0.9950,-0.0855,0.4182,0.1633,-0.1358,0.4495,-0.0208,0.3555,49.23789101,-123.03210410,0.00000000,
7.2490,0.3270,-0.8841,-0.1882,0.4182,0.1633,-0.1358,0.4495,-0.0208,0.3555,49.23789101,-123.03210410,0.00000000,
7.2510,0.3542,-0.7441,-0.2486,0.4182,0.1633,-0.1358,0.4495,-0.0208,0.3555,49.23789101,-123.03210410,0.00000000,
7.2520,0.3271,-0.6511,-0.3008,0.4182,0.1633,-0.1358,0.4495,-0.0208,0.3555,49.23789101,-123.03210410,0.00000000,
7.2760,0.3271,-0.6511,-0.3008,0.4182,0.1633,-0.1358,0.4646,-0.5027,0.2739,49.23789101,-123.03210410,0.00000000,
7.2770,0.3271,-0.6511,-0.3008,1.0771,3.1993,-1.8295,0.4646,-0.5027,0.2739,49.23789101,-123.03210410,0.00000000,
7.3250,0.3271,-0.6511,-0.3008,1.0771,3.1993,-1.8295,-0.1741,-0.6131,0.1936,49.23789101,-123.03210410,0.00000000,
7.3270,0.2499,-0.5835,-0.2985,1.0771,3.1993,-1.8295,-0.1741,-0.6131,0.1936,49.23789101,-123.03210410,0.00000000,
7.3280,0.1651,-0.5557,-0.2411,1.0771,3.1993,-1.8295,-0.1741,-0.6131,0.1936,49.23789101,-123.03210410,0.00000000,
7.3290,0.1031,-0.5714,-0.1781,1.0771,3.1993,-1.8295,-0.1741,-0.6131,0.1936,49.23789101,-123.03210410,0.00000000,
7.3300,0.0729,-0.5908,-0.1598,1.0771,3.1993,-1.8295,-0.1741,-0.6131,0.1936,49.23789101,-123.03210410,0.00000000,
7.3760,0.0729,-0.5908,-0.1598,-0.6174,3.4966,-0.6231,-0.1741,-0.6131,0.1936,49.23789101,-123.03210410,0.00000000,
7.4030,0.0729,-0.5908,-0.1598,-0.6174,3.4966,-0.6231,0.1116,-0.6921,-0.0091,49.23789101,-123.03210410,0.00000000,
7.4050,0.0729,-0.5908,-0.1598,-0.3596,1.9446,-1.4147,0.1116,-0.6921,-0.0091,49.23789101,-123.03210410,0.00000000,
7.4060,0.0696,-0.6569,-0.1904,-0.3596,1.9446,-1.4147,0.1116,-0.6921,-0.0091,49.23789101,-123.03210410,0.00000000,
7.4070,0.0815,-0.7242,-0.2366,-0.3596,1.9446,-1.4147,0.1116,-0.6921,-0.0091,49.23789101,-123.03210410,0.00000000,
7.4080,0.1347,-0.7688,-0.2817,-0.3596,1.9446,-1.4147,0.1116,-0.6921,-0.0091,49.23789101,-123.03210410,0.00000000,
7.4450,0.1347,-0.7688,-0.2817,-0.3596,1.9446,-1.4147,0.0420,-0.7143,-0.2224,49.23789101,-123.03210410,0.00000000,
7.4810,0.2282,-0.7974,-0.3553,-0.3596,1.9446,-1.4147,0.0420,-0.7143,-0.2224,49.23789101,-123.03210410,0.00000000,
7.4830,0.2801,-0.7539,-0.4113,-0.3596,1.9446,-1.4147,0.0420,-0.7143,-0.2224,49.23789101,-123.03210410,0.00000000,
7.4840,0.2563,-0.7566,-0.2879,-0.3596,1.9446,-1.4147,0.0420,-0.7143,-0.2224,49.23789101,-123.03210410,0.00000000,
7.4860,0.1773,-0.8924,-0.2056,-0.3596,1.9446,-1.4147,0.0420,-0.7143,-0.2224,49.23789101,-123.03210410,0.00000000,
7.4870,0.1773,-0.8924,-0.2056,0.8525,1.5365,-1.9799,0.0420,-0.7143,-0.2224,49.23789101,-123.03210410,0.00000000,
7.5250,0.1773,-0.8924,-0.2056,0.8525,1.5365,-1.9799,0.0413,-0.6264,-0.1687,49.23789101,-123.03210410,0.00000000,
7.5280,0.1773,-0.8924,-0.2056,-1.0804,-0.9433,-3.3941,0.0413,-0.6264,-0.1687,49.23789101,-123.03210410,0.00000000,
7.5610,0.1286,-1.0096,-0.4656,-1.0804,-0.9433,-3.3941,0.0413,-0.6264,-0.1687,49.23789101,-123.03210410,0.00000000,
7.5630,-0.0150,-1.1273,-0.6093,-1.0804,-0.9433,-3.3941,0.0413,-0.6264,-0.1687,49.23789101,-123.03210410,0.00000000,
7.5650,-0.0577,-0.9018,-0.5248,-1.0804,-0.9433,-3.3941,0.0413,-0.6264,-0.1687,49.23789101,-123.03210410,0.00000000,
7.5660,0.0573,-0.6587,-0.4725,-1.0804,-0.9433,-3.3941,0.0413,-0.6264,-0.1687,49.23789101,-123.03210410,0.00000000,
7.6050,0.0573,-0.6587,-0.4725,-1.0804,-0.9433,-3.3941,-0.5151,-0.7722,0.0299,49.23789101,-123.03210410,0.00000000,
7.6070,0.0573,-0.6587,-0.4725,-1.0790,1.6174,-1.7829,-0.5151,-0.7722,0.0299,49.23789101,-123.03210410,0.00000000,
7.6370,0.0573,-0.6587,-0.4725,0.0964,-6.0994,5.4020,-0.5151,-0.7722,0.0299,49.23789101,-123.03210410,0.00000000,
7.6380,0.0573,-0.6587,-0.4725,0.0964,-6.0994,5.4020,-0.4187,-0.7108,-0.0180,49.23789101,-123.03210410,0.00000000,
7.6390,0.0973,-0.7287,-0.2683,0.0964,-6.0994,5.4020,-0.4187,-0.7108,-0.0180,49.23789101,-123.03210410,0.00000000,
7.6400,-0.0360,-1.0504,-0.1439,0.0964,-6.0994,5.4020,-0.4187,-0.7108,-0.0180,49.23789101,-123.03210410,0.00000000,
7.6410,-0.0287,-1.5331,0.0461,0.0964,-6.0994,5.4020,-0.4187,-0.7108,-0.0180,49.23789101,-123.03210410,0.00000000,
7.6420,0.3449,-1.7834,0.5647,0.0964,-6.0994,5.4020,-0.4187,-0.7108,-0.0180,49.23789101,-123.03210410,0.00000000,
7.6850,0.3449,-1.7834,0.5647,0.0964,-6.0994,5.4020,1.1066,-0.6436,-0.3257,49.23789101,-123.03210410,0.00000000,
7.7150,0.4380,-1.5547,1.1069,0.0964,-6.0994,5.4020,1.1066,-0.6436,-0.3257,49.23789101,-123.03210410,0.00000000,
7.7170,0.5854,-1.5043,1.0166,0.0964,-6.0994,5.4020,1.1066,-0.6436,-0.3257,49.23789101,-123.03210410,0.00000000,
7.7190,0.7692,-1.4316,0.6892,0.0964,-6.0994,5.4020,1.1066,-0.6436,-0.3257,49.23789101,-123.03210410,0.00000000,
7.7200,0.6166,-1.5108,0.3151,0.0964,-6.0994,5.4020,1.1066,-0.6436,-0.3257,49.23789101,-123.03210410,0.00000000,
7.7200,0.6166,-1.5108,0.3151,4.5800,-5.1195,9.2657,1.1066,-0.6436,-0.3257,49.23789101,-123.03210410,0.00000000,
7.7560,0.6166,-1.5108,0.3151,4.5800,-5.1195,9.2657,0.5983,0.2858,-0.0571,49.23789101,-123.03210410,0.00000000,
7.7570,0.6166,-1.5108,0.3151,0.7655,-3.1221,-0.5136,0.5983,0.2858,-0.0571,49.23789101,-123.03210410,0.00000000,
7.7920,0.3306,-1.4386,0.0216,0.7655,-3.1221,-0.5136,0.5983,0.2858,-0.0571,49.23789101,-123.03210410,0.00000000,
7.7930,0.1224,-1.1512,-0.3153,0.7655,-3.1221,-0.5136,0.5983,0.2858,-0.0571,49.23789101,-123.03210410,0.00000000,
7.7940,0.0376,-0.9073,-0.4320,0.7655,-3.1221,-0.5136,0.5983,0.2858,-0.0571,49.23789101,-123.03210410,0.00000000,
7.7950,0.0429,-0.7520,-0.2574,0.7655,-3.1221,-0.5136,0.5983,0.2858,-0.0571,49.23789101,-123.03210410,0.00000000,
7.8350,0.0429,-0.7520,-0.2574,0.7655,-3.1221,-0.5136,0.2137,0.2878,-0.0331,49.23789101,-123.03210410,0.00000000,
7.8370,0.0429,-0.7520,-0.2574,-1.1880,2.3277,-1.3672,0.2137,0.2878,-0.0331,49.23789101,-123.03210410,0.00000000,
7.8700,0.0429,-0.7520,-0.2574,-1.1880,2.3277,-1.3672,0.0958,0.3875,0.0223,49.23789101,-123.03210410,0.00000000,
7.8720,0.0600,-0.6614,-0.1362,-1.1880,2.3277,-1.3672,0.0958,0.3875,0.0223,49.23789101,-123.03210410,0.00000000,
7.8730,0.1003,-0.6276,-0.0613,-1.1880,2.3277,-1.3672,0.0958,0.3875,0.0223,49.23789101,-123.03210410,0.00000000,
7.8740,0.1129,-0.5789,-0.0437,-1.1880,2.3277,-1.3672,0.0958,0.3875,0.0223,49.23789101,-123.03210410,0.00000000,
7.8750,0.1003,-0.5270,-0.0629,-1.1880,2.3277,-1.3672,0.0958,0.3875,0.0223,49.23789101,-123.03210410,0.00000000,
7.9190,0.1003,-0.5270,-0.0629,-0.7132,3.8632,0.0274,0.0958,0.3875,0.0223,49.23789101,-123.03210410,0.00000000,
7.9480,0.1003,-0.5270,-0.0629,-0.7132,3.8632,0.0274,0.2464,0.0850,0.1315,49.23789101,-123.03210410,0.00000000,
7.9500,0.1003,-0.5270,-0.0629,-0.4683,2.5860,-1.3775,0.2464,0.0850,0.1315,49.23789101,-123.03210410,0.00000000,
7.9510,0.0682,-0.5274,-0.1018,-0.4683,2.5860,-1.3775,0.2464,0.0850,0.1315,49.23789101,-123.03210410,0.00000000,
7.9520,0.0657,-0.6326,-0.1742,-0.4683,2.5860,-1.3775,0.2464,0.0850,0.1315,49.23789101,-123.03210410,0.00000000,
7.9540,0.1458,-0.7498,-0.2202,-0.4683,2.5860,-1.3775,0.2464,0.0850,0.1315,49.23789101,-123.03210410,0.00000000,
7.9560,0.2428,-0.8309,-0.2489,-0.4683,2.5860,-1.3775,0.2464,0.0850,0.1315,49.23789101,-123.03210410,0.00000000,
7.9950,0.2428,-0.8309,-0.2489,-0.4683,2.5860,-1.3775,0.0930,-0.2910,0.1109,49.23789101,-123.03210410,0.00000000,
7.9970,0.2428,-0.8309,-0.2489,1.6440,0.0691,-2.6011,0.0930,-0.2910,0.1109,49.23789101,-123.03210410,0.00000000,
8.0260,0.3226,-0.9296,-0.2989,1.6440,0.0691,-2.6011,0.0930,-0.2910,0.1109,49.23789101,-123.03210410,0.00000000,
8.0270,0.3561,-0.9892,-0.3422,1.6440,0.0691,-2.6011,0.0930,-0.2910,0.1109,49.23789101,-123.03210410,0.00000000,
8.0280,0.3558,-0.9580,-0.3903,1.6440,0.0691,-2.6011,0.0930,-0.2910,0.1109,49.23789101,-123.03210410,0.00000000,
8.0290,0.3847,-0.9644,-0.4184,1.6440,0.0691,-2.6011,0.0930,-0.2910,0.1109,49.23789101,-123.03210410,0.00000000,
8.0550,0.3847,-0.9644,-0.4184,1.6440,0.0691,-2.6011,-0.3844,0.1793,0.0441,49.23789101,-123.03210410,0.00000000,
8.0950,0.3847,-0.9644,-0.4184,2.4213,-0.2923,-2.7872,-0.3844,0.1793,0.0441,49.23789101,-123.03210410,0.00000000,
8.0970,0.4417,-0.9917,-0.3525,2.4213,-0.2923,-2.7872,-0.3844,0.1793,0.0441,49.23789101,-123.03210410,0.00000000,
8.0980,0.4608,-1.0149,-0.2448,2.4213,-0.2923,-2.7872,-0.3844,0.1793,0.0441,49.23789101,-123.03210410,0.00000000,
8.0990,0.4272,-1.0292,-0.1220,2.4213,-0.2923,-2.7872,-0.3844,0.1793,0.0441,49.23789101,-123.03210410,0.00000000,
8.1450,0.4272,-1.0292,-0.1220,2.4213,-0.2923,-2.7872,-0.5277,-0.2600,-0.0603,49.23789101,-123.03210410,0.00000000,
8.1460,0.4272,-1.0292,-0.1220,2.4313,-1.6336,0.8161,-0.5277,-0.2600,-0.0603,49.23789101,-123.03210410,0.00000000,
8.1720,0.4272,-1.0292,-0.1220,2.4313,-1.6336,0.8161,0.0175,-0.5172,-0.1830,49.23789101,-123.03210410,0.00000000,
8.1740,0.3951,-1.1710,0.0554,2.4313,-1.6336,0.8161,0.0175,-0.5172,-0.1830,49.23789101,-123.03210410,0.00000000,
8.1740,0.4390,-1.2662,0.1844,2.4313,-1.6336,0.8161,0.0175,-0.5172,-0.1830,49.23789101,-123.03210410,0.00000000,
8.1750,0.5367,-1.2120,0.0073,2.4313,-1.6336,0.8161,0.0175,-0.5172,-0.1830,49.23789101,-123.03210410,0.00000000,
8.1760,0.3324,-1.3200,-0.2670,2.4313,-1.6336,0.8161,0.0175,-0.5172,-0.1830,49.23789101,-123.03210410,0.00000000,
8.2150,0.3324,-1.3200,-0.2670,1.9290,-3.2423,0.2464,0.0175,-0.5172,-0.1830,49.23789101,-123.03210410,0.00000000,
8.2470,0.3324,-1.3200,-0.2670,1.9290,-3.2423,0.2464,-0.3729,0.1937,-0.0237,49.23789101,-123.03210410,0.00000000,
8.2480,0.0312,-1.3701,-0.1587,1.9290,-3.2423,0.2464,-0.3729,0.1937,-0.0237,49.23789101,-123.03210410,0.00000000,
8.2490,-0.0887,-1.2043,-0.0287,1.9290,-3.2423,0.2464,-0.3729,0.1937,-0.0237,49.23789101,-123.03210410,0.00000000,
8.2500,-0.1272,-0.9584,0.0638,1.9290,-3.2423,0.2464,-0.3729,0.1937,-0.0237,49.23789101,-123.03210410,0.00000000,
8.2510,-0.1284,-0.8376,0.2108,1.9290,-3.2423,0.2464,-0.3729,0.1937,-0.0237,49.23789101,-123.03210410,0.00000000,
8.2520,-0.1284,-0.8376,0.2108,-2.7024,-1.3363,1.5520,-0.3729,0.1937,-0.0237,49.23789101,-123.03210410,0.00000000,
8.2950,-0.1284,-0.8376,0.2108,-2.7024,-1.3363,1.5520,-0.2500,-0.0267,0.0511,49.23789101,-123.03210410,0.00000000,
8.2970,-0.1284,-0.8376,0.2108,-3.0126,0.6931,4.2296,-0.2500,-0.0267,0.0511,49.23789101,-123.03210410,0.00000000,
8.3240,-0.1326,-0.8636,0.3118,-3.0126,0.6931,4.2296,-0.2500,-0.0267,0.0511,49.23789101,-123.03210410,0.00000000,
8.3260,-0.1459,-0.9028,0.3198,-3.0126,0.6931,4.2296,-0.2500,-0.0267,0.0511,49.23789101,-123.03210410,0.00000000,
8.3270,-0.1383,-0.9206,0.2658,-3.0126,0.6931,4.2296,-0.2500,-0.0267,0.0511,49.23789101,-123.03210410,0.00000000,
8.3280,-0.0636,-0.9282,0.1598,-3.0126,0.6931,4.2296,-0.2500,-0.0267,0.0511,49.23789101,-123.03210410,0.00000000,
8.3740,-0.0636,-0.9282,0.1598,-3.0126,0.6931,4.2296,0.5599,-0.0688,0.2055,49.23789101,-123.03210410,0.00000000,
8.3760,-0.0636,-0.9282,0.1598,-1.5525,0.3294,2.2456,0.5599,-0.0688,0.2055,49.23789101,-123.03210410,0.00000000,
8.4020,0.0486,-0.9159,0.0891,-1.5525,0.3294,2.2456,0.5599,-0.0688,0.2055,49.23789101,-123.03210410,0.00000000,
8.4040,0.1682,-0.9170,0.0190,-1.5525,0.3294,2.2456,0.5599,-0.0688,0.2055,49.23789101,-123.03210410,0.00000000,
8.4040,0.3087,-0.8978,-0.1786,-1.5525,0.3294,2.2456,0.5599,-0.0688,0.2055,49.23789101,-123.03210410,0.00000000,
8.4440,0.3087,-0.8978,-0.1786,-1.5525,0.3294,2.2456,0.7092,-0.1620,0.1242,49.23789101,-123.03210410,0.00000000,
8.4450,0.3087,-0.8978,-0.1786,1.2833,1.3561,-2.4997,0.7092,-0.1620,0.1242,49.23789101,-123.03210410,0.00000000,
8.4800,0.3087,-0.8978,-0.1786,1.2833,1.3561,-2.4997,-0.1176,-0.7383,0.4828,49.23789101,-123.03210410,0.00000000,
8.4810,0.3087,-0.8978,-0.1786,-0.2559,2.9486,-2.0343,-0.1176,-0.7383,0.4828,49.23789101,-123.03210410,0.00000000,
8.4820,0.3114,-0.7474,-0.4505,-0.2559,2.9486,-2.0343,-0.1176,-0.7383,0.4828,49.23789101,-123.03210410,0.00000000,
8.4830,0.1835,-0.7245,-0.6364,-0.2559,2.9486,-2.0343,-0.1176,-0.7383,0.4828,49.23789101,-123.03210410,0.00000000,
8.4840,0.0768,-0.6850,-0.4054,-0.2559,2.9486,-2.0343,-0.1176,-0.7383,0.4828,49.23789101,-123.03210410,0.00000000,
8.4840,0.0775,-0.6115,-0.1250,-0.2559,2.9486,-2.0343,-0.1176,-0.7383,0.4828,49.23789101,-123.03210410,0.00000000,
8.5240,0.0775,-0.6115,-0.1250,-0.2559,2.9486,-2.0343,0.3442,-0.9733,0.1865,49.23789101,-123.03210410,0.00000000,
8.5580,0.0763,-0.6170,-0.0479,-0.2559,2.9486,-2.0343,0.3442,-0.9733,0.1865,49.23789101,-123.03210410,0.00000000,
8.5600,0.0986,-0.6743,-0.0491,-0.2559,2.9486,-2.0343,0.3442,-0.9733,0.1865,49.23789101,-123.03210410,0.00000000,
8.5610,0.1458,-0.7775,-0.0938,-0.2559,2.9486,-2.0343,0.3442,-0.9733,0.1865,49.23789101,-123.03210410,0.00000000,
8.5620,0.2144,-0.8343,-0.1769,-0.2559,2.9486,-2.0343,0.3442,-0.9733,0.1865,49.23789101,-123.03210410,0.00000000,
8.5630,0.2144,-0.8343,-0.1769,0.2232,2.2261,-0.0883,0.3442,-0.9733,0.1865,49.23789101,-123.03210410,0.00000000,
8.6240,0.2144,-0.8343,-0.1769,0.2232,2.2261,-0.0883,0.0149,-0.8917,-0.1656,49.23789101,-123.03210410,0.00000000,
8.6260,0.2144,-0.8343,-0.1769,1.0893,1.0629,-2.5003,0.0149,-0.8917,-0.1656,49.23789101,-123.03210410,0.00000000,
8.6270,0.2471,-0.8439,-0.3463,1.0893,1.0629,-2.5003,0.0149,-0.8917,-0.1656,49.23789101,-123.03210410,0.00000000,
8.6280,0.2260,-0.8382,-0.3984,1.0893,1.0629,-2.5003,0.0149,-0.8917,-0.1656,49.23789101,-123.03210410,0.00000000,
8.6290,0.1462,-0.8761,-0.2640,1.0893,1.0629,-2.5003,0.0149,-0.8917,-0.1656,49.23789101,-123.03210410,0.00000000,
8.6300,0.0267,-0.9538,-0.2396,1.0893,1.0629,-2.5003,0.0149,-0.8917,-0.1656,49.23789101,-123.03210410,0.00000000,
8.6750,0.0267,-0.9538,-0.2396,1.0893,1.0629,-2.5003,0.2181,-0.1900,-0.3218,49.23789101,-123.03210410,0.00000000,
8.6770,0.0267,-0.9538,-0.2396,-1.1789,-0.6411,-2.3342,0.2181,-0.1900,-0.3218,49.23789101,-123.03210410,0.00000000,
8.7020,-0.0365,-1.0808,-0.3589,-1.1789,-0.6411,-2.3342,0.2181,-0.1900,-0.3218,49.23789101,-123.03210410,0.00000000,
8.7040,-0.0327,-1.1090,-0.4604,-1.1789,-0.6411,-2.3342,0.2181,-0.1900,-0.3218,49.23789101,-123.03210410,0.00000000,
8.7050,0.0260,-0.9357,-0.4394,-1.1789,-0.6411,-2.3342,0.2181,-0.1900,-0.3218,49.23789101,-123.03210410,0.00000000,
8.7440,0.0260,-0.9357,-0.4394,-1.1789,-0.6411,-2.3342,-0.2609,-0.2365,-0.1586,49.23789101,-123.03210410,0.00000000,
8.7460,0.0260,-0.9357,-0.4394,-0.8613,0.2495,-2.6684,-0.2609,-0.2365,-0.1586,49.23789101,-123.03210410,0.00000000,
8.7800,0.0260,-0.9357,-0.4394,-0.8613,0.2495,-2.6684,-0.1071,-0.5517,-0.0903,49.23789101,-123.03210410,0.00000000,
8.7810,0.0260,-0.9357,-0.4394,-0.3755,-3.1791,1.2096,-0.1071,-0.5517,-0.0903,49.23789101,-123.03210410,0.00000000,
8.7820,0.0720,-0.8424,-0.3067,-0.3755,-3.1791,1.2096,-0.1071,-0.5517,-0.0903,49.23789101,-123.03210410,0.00000000,
8.7830,0.1102,-0.9532,-0.2206,-0.3755,-3.1791,1.2096,-0.1071,-0.5517,-0.0903,49.23789101,-123.03210410,0.00000000,
8.7840,0.1526,-1.2025,-0.0209,-0.3755,-3.1791,1.2096,-0.1071,-0.5517,-0.0903,49.23789101,-123.03210410,0.00000000,
8.7850,0.0548,-1.3817,0.1389,-0.3755,-3.1791,1.2096,-0.1071,-0.5517,-0.0903,49.23789101,-123.03210410,0.00000000,
8.8240,0.0548,-1.3817,0.1389,-0.3755,-3.1791,1.2096,-0.0590,-0.7314,0.0830,49.23789101,-123.03210410,0.00000000,
8.8360,0.0548,-1.3817,0.1389,2.2747,-1.7439,3.7455,-0.0590,-0.7314,0.0830,49.23789101,-123.03210410,0.00000000,
8.8580,0.1063,-1.4595,0.0449,2.2747,-1.7439,3.7455,-0.0590,-0.7314,0.0830,49.23789101,-123.03210410,0.00000000,
8.8600,0.3757,-1.1596,0.0949,2.2747,-1.7439,3.7455,-0.0590,-0.7314,0.0830,49.23789101,-123.03210410,0.00000000,
8.8610,0.4022,-1.0252,0.4489,2.2747,-1.7439,3.7455,-0.0590,-0.7314,0.0830,49.23789101,-123.03210410,0.00000000,
8.8620,0.4396,-0.9850,0.5352,2.2747,-1.7439,3.7455,-0.0590,-0.7314,0.0830,49.23789101,-123.03210410,0.00000000,
8.9040,0.4396,-0.9850,0.5352,2.2747,-1.7439,3.7455,0.6478,-0.4144,-0.0677,49.23789101,-123.03210410,0.00000000,
8.9060,0.4396,-0.9850,0.5352,1.5034,-0.3957,2.9516,0.6478,-0.4144,-0.0677,49.23789101,-123.03210410,0.00000000,
8.9360,0.4165,-0.9548,0.2479,1.5034,-0.3957,2.9516,0.6478,-0.4144,-0.0677,49.23789101,-123.03210410,0.00000000,
8.9380,0.2032,-1.0313,0.1881,1.5034,-0.3957,2.9516,0.6478,-0.4144,-0.0677,49.23789101,-123.03210410,0.00000000,
8.9390,-0.0031,-1.0659,0.0664,1.5034,-0.3957,2.9516,0.6478,-0.4144,-0.0677,49.23789101,-123.03210410,0.00000000,
8.9400,-0.0969,-1.0552,-0.1245,1.5034,-0.3957,2.9516,0.6478,-0.4144,-0.0677,49.23789101,-123.03210410,0.00000000,
8.9840,-0.0969,-1.0552,-0.1245,1.5034,-0.3957,2.9516,0.4236,-0.0020,-0.0052,49.23789101,-123.03210410,0.00000000,
8.9860,-0.0969,-1.0552,-0.1245,-1.6043,-0.3057,-0.9107,0.4236,-0.0020,-0.0052,49.23789101,-123.03210410,0.00000000,
9.0150,-0.0969,-1.0552,-0.1245,-1.6043,-0.3057,-0.9107,0.3577,0.0364,-0.1917,49.23789101,-123.03210410,0.00000000,
9.0170,-0.0283,-0.9569,-0.2085,-1.6043,-0.3057,-0.9107,0.3577,0.0364,-0.1917,49.23789101,-123.03210410,0.00000000,
9.0180,0.1372,-0.8420,-0.1328,-1.6043,-0.3057,-0.9107,0.3577,0.0364,-0.1917,49.23789101,-123.03210410,0.00000000,
9.0200,0.2281,-0.7377,-0.0455,-1.6043,-0.3057,-0.9107,0.3577,0.0364,-0.1917,49.23789101,-123.03210410,0.00000000,
9.0230,0.2468,-0.6567,-0.0126,-1.6043,-0.3057,-0.9107,0.3577,0.0364,-0.1917,49.23789101,-123.03210410,0.00000000,
9.0540,0.2468,-0.6567,-0.0126,0.7957,2.4132,-0.2255,0.3577,0.0364,-0.1917,49.23789101,-123.03210410,0.00000000,
9.0920,0.2468,-0.6567,-0.0126,0.7957,2.4132,-0.2255,0.4042,0.2025,-0.0816,49.23789101,-123.03210410,0.00000000,
9.0940,0.2276,-0.6727,-0.0369,0.7957,2.4132,-0.2255,0.4042,0.2025,-0.0816,49.23789101,-123.03210410,0.00000000,
9.0950,0.1775,-0.7260,-0.1055,0.7957,2.4132,-0.2255,0.4042,0.2025,-0.0816,49.23789101,-123.03210410,0.00000000,
9.0970,0.1262,-0.7553,-0.1586,0.7957,2.4132,-0.2255,0.4042,0.2025,-0.0816,49.23789101,-123.03210410,0.00000000,
9.0980,0.1053,-0.7899,-0.1998,0.7957,2.4132,-0.2255,0.4042,0.2025,-0.0816,49.23789101,-123.03210410,0.00000000,
9.0990,0.1053,-0.7899,-0.1998,0.0715,2.0863,-1.3060,0.4042,0.2025,-0.0816,49.23789101,-123.03210410,0.00000000,
9.1340,0.1053,-0.7899,-0.1998,0.0715,2.0863,-1.3060,0.2253,0.3153,-0.0171,49.23789101,-123.03210410,0.00000000,
9.1360,0.1053,-0.7899,-0.1998,-0.3492,1.3802,-2.0412,0.2253,0.3153,-0.0171,49.23789101,-123.03210410,0.00000000,
9.1700,0.1073,-0.8077,-0.2079,-0.3492,1.3802,-2.0412,0.2253,0.3153,-0.0171,49.23789101,-123.03210410,0.00000000,
9.1710,0.1187,-0.8190,-0.1862,-0.3492,1.3802,-2.0412,0.2253,0.3153,-0.0171,49.23789101,-123.03210410,0.00000000,
9.1710,0.1229,-0.8001,-0.1777,-0.3492,1.3802,-2.0412,0.2253,0.3153,-0.0171,49.23789101,-123.03210410,0.00000000,
9.1720,0.1408,-0.7932,-0.2088,-0.3492,1.3802,-2.0412,0.2253,0.3153,-0.0171,49.23789101,-123.03210410,0.00000000,
9.2140,0.1408,-0.7932,-0.2088,-0.3492,1.3802,-2.0412,-0.0354,0.4852,0.0331,49.23789101,-123.03210410,0.00000000,
9.2200,0.1408,-0.7932,-0.2088,0.1156,1.2234,-2.4714,-0.0354,0.4852,0.0331,49.23789101,-123.03210410,0.00000000,
9.2470,0.1408,-0.7932,-0.2088,0.1156,1.2234,-2.4714,-0.3978,0.4507,-0.0562,49.23789101,-123.03210410,0.00000000,
9.2480,0.1727,-0.8347,-0.2721,0.1156,1.2234,-2.4714,-0.3978,0.4507,-0.0562,49.23789101,-123.03210410,0.00000000,
9.2490,0.2207,-0.9042,-0.3112,0.1156,1.2234,-2.4714,-0.3978,0.4507,-0.0562,49.23789101,-123.03210410,0.00000000,
9.2500,0.3691,-0.9467,-0.2767,0.1156,1.2234,-2.4714,-0.3978,0.4507,-0.0562,49.23789101,-123.03210410,0.00000000,
9.2500,0.5071,-1.0076,-0.1563,0.1156,1.2234,-2.4714,-0.3978,0.4507,-0.0562,49.23789101,-123.03210410,0.00000000,
9.2940,0.5071,-1.0076,-0.1563,2.6611,-0.2795,-2.0170,-0.3978,0.4507,-0.0562,49.23789101,-123.03210410,0.00000000,
9.3250,0.5071,-1.0076,-0.1563,2.6611,-0.2795,-2.0170,-0.4471,0.3107,-0.2330,49.23789101,-123.03210410,0.00000000,
9.3270,0.5071,-1.0076,-0.1563,1.8389,-2.5316,-1.4630,-0.4471,0.3107,-0.2330,49.23789101,-123.03210410,0.00000000,
9.3280,0.5781,-1.0256,-0.1891,1.8389,-2.5316,-1.4630,-0.4471,0.3107,-0.2330,49.23789101,-123.03210410,0.00000000,
9.3290,0.4997,-1.0570,-0.3523,1.8389,-2.5316,-1.4630,-0.4471,0.3107,-0.2330,49.23789101,-123.03210410,0.00000000,
9.3300,0.2285,-1.3114,-0.1541,1.8389,-2.5316,-1.4630,-0.4471,0.3107,-0.2330,49.23789101,-123.03210410,0.00000000,
9.3310,0.1060,-1.5248,0.1842,1.8389,-2.5316,-1.4630,-0.4471,0.3107,-0.2330,49.23789101,-123.03210410,0.00000000,
9.3940,0.1060,-1.5248,0.1842,1.8389,-2.5316,-1.4630,-0.7117,0.6869,-0.0736,49.23789101,-123.03210410,0.00000000,
9.3960,0.1060,-1.5248,0.1842,-2.0221,-5.0984,5.0912,-0.7117,0.6869,-0.0736,49.23789101,-123.03210410,0.00000000,
9.3980,0.0040,-1.6385,0.4844,-2.0221,-5.0984,5.0912,-0.7117,0.6869,-0.0736,49.23789101,-123.03210410,0.00000000,
9.3990,-0.0806,-1.4171,0.5550,-2.0221,-5.0984,5.0912,-0.7117,0.6869,-0.0736,49.23789101,-123.03210410,0.00000000,
9.4000,-0.1604,-1.1198,0.3552,-2.0221,-5.0984,5.0912,-0.7117,0.6869,-0.0736,49.23789101,-123.03210410,0.00000000,
9.4440,-0.1604,-1.1198,0.3552,-2.0221,-5.0984,5.0912,0.0855,1.4102,0.2913,49.23789101,-123.03210410,0.00000000,
9.4450,-0.1604,-1.1198,0.3552,-5.0781,-1.7444,3.0377,0.0855,1.4102,0.2913,49.23789101,-123.03210410,0.00000000,
9.4730,-0.3235,-1.0280,0.3477,-5.0781,-1.7444,3.0377,0.0855,1.4102,0.2913,49.23789101,-123.03210410,0.00000000,
9.4740,-0.4796,-1.1896,0.3111,-5.0781,-1.7444,3.0377,0.0855,1.4102,0.2913,49.23789101,-123.03210410,0.00000000,
9.4750,-0.3247,-1.3790,-0.0888,-5.0781,-1.7444,3.0377,0.0855,1.4102,0.2913,49.23789101,-123.03210410,0.00000000,
9.4760,0.0044,-1.1954,-0.4166,-5.0781,-1.7444,3.0377,0.0855,1.4102,0.2913,49.23789101,-123.03210410,0.00000000,
9.5140,0.0044,-1.1954,-0.4166,-5.0781,-1.7444,3.0377,-0.1224,0.0339,0.6250,49.23789101,-123.03210410,0.00000000,
9.5150,0.0044,-1.1954,-0.4166,-0.5154,-1.1246,-2.1373,-0.1224,0.0339,0.6250,49.23789101,-123.03210410,0.00000000,
9.5480,0.0044,-1.1954,-0.4166,-0.5154,-1.1246,-2.1373,-0.5600,-1.2068,0.2726,49.23789101,-123.03210410,0.00000000,
9.5500,0.1541,-0.9271,-0.2021,-0.5154,-1.1246,-2.1373,-0.5600,-1.2068,0.2726,49.23789101,-123.03210410,0.00000000,
9.5510,0.2654,-0.8336,-0.1855,-0.5154,-1.1246,-2.1373,-0.5600,-1.2068,0.2726,49.23789101,-123.03210410,0.00000000,
9.5520,0.2999,-0.7793,-0.2473,-0.5154,-1.1246,-2.1373,-0.5600,-1.2068,0.2726,49.23789101,-123.03210410,0.00000000,
9.5530,0.2871,-0.6362,-0.1417,-0.5154,-1.1246,-2.1373,-0.5600,-1.2068,0.2726,49.23789101,-123.03210410,0.00000000,
9.5940,0.2871,-0.6362,-0.1417,1.8037,2.6682,-0.8213,-0.5600,-1.2068,0.2726,49.23789101,-123.03210410,0.00000000,
9.6150,0.2871,-0.6362,-0.1417,1.8037,2.6682,-0.8213,-0.3362,0.1367,0.3896,49.23789101,-123.03210410,0.00000000,
9.6260,0.2871,-0.6362,-0.1417,0.2342,4.0590,-0.1810,-0.3362,0.1367,0.3896,49.23789101,-123.03210410,0.00000000,
9.6270,0.1844,-0.4772,-0.0701,0.2342,4.0590,-0.1810,-0.3362,0.1367,0.3896,49.23789101,-123.03210410,0.00000000,
9.6270,0.1182,-0.5058,-0.1478,0.2342,4.0590,-0.1810,-0.3362,0.1367,0.3896,49.23789101,-123.03210410,0.00000000,
9.6280,0.0670,-0.5856,-0.1567,0.2342,4.0590,-0.1810,-0.3362,0.1367,0.3896,49.23789101,-123.03210410,0.00000000,
9.6290,0.0717,-0.6200,-0.0908,0.2342,4.0590,-0.1810,-0.3362,0.1367,0.3896,49.23789101,-123.03210410,0.00000000,
9.6730,0.0717,-0.6200,-0.0908,0.2342,4.0590,-0.1810,-0.1543,0.0406,0.0349,49.23789101,-123.03210410,0.00000000,
9.6750,0.0717,-0.6200,-0.0908,0.0474,2.5587,-1.1101,-0.1543,0.0406,0.0349,49.23789101,-123.03210410,0.00000000,
9.7030,0.0735,-0.6873,-0.1373,0.0474,2.5587,-1.1101,-0.1543,0.0406,0.0349,49.23789101,-123.03210410,0.00000000,
9.7050,0.0750,-0.7104,-0.2875,0.0474,2.5587,-1.1101,-0.1543,0.0406,0.0349,49.23789101,-123.03210410,0.00000000,
9.7060,0.1395,-0.7181,-0.4902,0.0474,2.5587,-1.1101,-0.1543,0.0406,0.0349,49.23789101,-123.03210410,0.00000000,
9.7440,0.1395,-0.7181,-0.4902,0.0474,2.5587,-1.1101,-0.3956,-0.5838,-0.2797,49.23789101,-123.03210410,0.00000000,
9.7450,0.1395,-0.7181,-0.4902,0.7789,1.5108,-2.4667,-0.3956,-0.5838,-0.2797,49.23789101,-123.03210410,0.00000000,
9.7800,0.2160,-0.7523,-0.5448,0.7789,1.5108,-2.4667,-0.3956,-0.5838,-0.2797,49.23789101,-123.03210410,0.00000000,
9.7810,0.1797,-0.8044,-0.3243,0.7789,1.5108,-2.4667,-0.3956,-0.5838,-0.2797,49.23789101,-123.03210410,0.00000000,
9.7820,0.0340,-0.9612,-0.1246,0.7789,1.5108,-2.4667,-0.3956,-0.5838,-0.2797,49.23789101,-123.03210410,0.00000000,
9.7820,-0.0885,-1.2136,-0.3441,0.7789,1.5108,-2.4667,-0.3956,-0.5838,-0.2797,49.23789101,-123.03210410,0.00000000,
9.8240,-0.0885,-1.2136,-0.3441,0.7789,1.5108,-2.4667,0.3701,-0.1248,-0.1398,49.23789101,-123.03210410,0.00000000,
9.8260,-0.0885,-1.2136,-0.3441,-1.3558,-1.7442,-3.5966,0.3701,-0.1248,-0.1398,49.23789101,-123.03210410,0.00000000,
9.8580,-0.0885,-1.2136,-0.3441,-1.3558,-1.7442,-3.5966,-0.9970,-0.4577,0.0212,49.23789101,-123.03210410,0.00000000,
9.8600,-0.0885,-1.2136,-0.3441,-1.4959,-4.0212,0.8853,-0.9970,-0.4577,0.0212,49.23789101,-123.03210410,0.00000000,
9.8610,-0.0429,-1.1838,-0.7025,-1.4959,-4.0212,0.8853,-0.9970,-0.4577,0.0212,49.23789101,-123.03210410,0.00000000,
9.8620,-0.0022,-0.9428,-0.7905,-1.4959,-4.0212,0.8853,-0.9970,-0.4577,0.0212,49.23789101,-123.03210410,0.00000000,
9.8630,0.0233,-1.2421,-0.3925,-1.4959,-4.0212,0.8853,-0.9970,-0.4577,0.0212,49.23789101,-123.03210410,0.00000000,
9.8640,-0.1452,-1.5230,0.2878,-1.4959,-4.0212,0.8853,-0.9970,-0.4577,0.0212,49.23789101,-123.03210410,0.00000000,
9.9240,-0.1452,-1.5230,0.2878,-1.4959,-4.0212,0.8853,0.6622,0.6423,0.6206,49.23789101,-123.03210410,0.00000000,
9.9260,-0.1452,-1.5230,0.2878,-0.0063,-2.4622,3.4785,0.6622,0.6423,0.6206,49.23789101,-123.03210410,0.00000000,
9.9360,-0.1030,-1.7016,0.3264,-0.0063,-2.4622,3.4785,0.6622,0.6423,0.6206,49.23789101,-123.03210410,0.00000000,
9.9370,0.1457,-1.3142,0.0784,-0.0063,-2.4622,3.4785,0.6622,0.6423,0.6206,49.23789101,-123.03210410,0.00000000,
9.9380,0.0308,-0.9257,0.1964,-0.0063,-2.4622,3.4785,0.6622,0.6423,0.6206,49.23789101,-123.03210410,0.00000000,
9.9400,0.0166,-1.1292,0.5096,-0.0063,-2.4622,3.4785,0.6622,0.6423,0.6206,49.23789101,-123.03210410,0.00000000,
9.9840,0.0166,-1.1292,0.5096,-0.0063,-2.4622,3.4785,0.3486,0.1200,-0.1254,49.23789101,-123.03210410,0.00000000,
9.9850,0.0166,-1.1292,0.5096,0.2029,-2.7057,6.2350,0.3486,0.1200,-0.1254,49.23789101,-123.03210410,0.00000000,
10.0130,0.1088,-1.2682,0.5635,0.2029,-2.7057,6.2350,0.3486,0.1200,-0.1254,49.23789101,-123.03210410,0.00000000,
10.0160,0.1019,-1.2608,0.5893,0.2029,-2.7057,6.2350,0.3486,0.1200,-0.1254,49.23789101,-123.03210410,0.00000000,
10.0170,0.0591,-1.1827,0.2628,0.2029,-2.7057,6.2350,0.3486,0.1200,-0.1254,49.23789101,-123.03210410,0.00000000,
10.0170,-0.0353,-1.0394,-0.1165,0.2029,-2.7057,6.2350,0.3486,0.1200,-0.1254,49.23789101,-123.03210410,0.00000000,
10.0630,-0.0353,-1.0394,-0.1165,0.2029,-2.7057,6.2350,0.6691,0.2292,-0.2738,49.23789101,-123.03210410,0.00000000,
10.0640,-0.0353,-1.0394,-0.1165,-1.2402,-0.0601,-0.3296,0.6691,0.2292,-0.2738,49.23789101,-123.03210410,0.00000000,
10.0910,-0.0353,-1.0394,-0.1165,-1.2402,-0.0601,-0.3296,0.2563,0.3535,-0.2316,49.23789101,-123.03210410,0.00000000,
10.0920,-0.0854,-0.8978,-0.1959,-1.2402,-0.0601,-0.3296,0.2563,0.3535,-0.2316,49.23789101,-123.03210410,0.00000000,
10.0930,-0.0486,-0.8135,-0.1905,-1.2402,-0.0601,-0.3296,0.2563,0.3535,-0.2316,49.23789101,-123.03210410,0.00000000,
10.0930,0.0705,-0.7261,-0.2210,-1.2402,-0.0601,-0.3296,0.2563,0.3535,-0.2316,49.23789101,-123.03210410,0.00000000,
10.0940,0.1424,-0.6068,-0.2270,-1.2402,-0.0601,-0.3296,0.2563,0.3535,-0.2316,49.23789101,-123.03210410,0.00000000,
10.1340,0.1424,-0.6068,-0.2270,-0.0402,2.9027,-1.5144,0.2563,0.3535,-0.2316,49.23789101,-123.03210410,0.00000000,
10.1690,0.1424,-0.6068,-0.2270,-0.0402,2.9027,-1.5144,0.3621,0.8470,-0.2346,49.23789101,-123.03210410,0.00000000,
10.1710,0.1746,-0.5534,-0.1201,-0.0402,2.9027,-1.5144,0.3621,0.8470,-0.2346,49.23789101,-123.03210410,0.00000000,
10.1730,0.1603,-0.5784,-0.0232,-0.0402,2.9027,-1.5144,0.3621,0.8470,-0.2346,49.23789101,-123.03210410,0.00000000,
10.1740,0.1187,-0.6338,0.0058,-0.0402,2.9027,-1.5144,0.3621,0.8470,-0.2346,49.23789101,-123.03210410,0.00000000,
10.1750,0.0625,-0.6953,-0.0038,-0.0402,2.9027,-1.5144,0.3621,0.8470,-0.2346,49.23789101,-123.03210410,0.00000000,
10.1760,0.0625,-0.6953,-0.0038,0.2287,3.4237,0.1075,0.3621,0.8470,-0.2346,49.23789101,-123.03210410,0.00000000,
10.2140,0.0625,-0.6953,-0.0038,0.2287,3.4237,0.1075,0.2306,0.5988,0.0603,49.23789101,-123.03210410,0.00000000,
10.2170,0.0625,-0.6953,-0.0038,-0.7815,1.8219,-1.0823,0.2306,0.5988,0.0603,49.23789101,-123.03210410,0.00000000,
10.2470,0.0149,-0.7540,-0.0706,-0.7815,1.8219,-1.0823,0.2306,0.5988,0.0603,49.23789101,-123.03210410,0.00000000,
10.2480,0.0093,-0.7909,-0.1663,-0.7815,1.8219,-1.0823,0.2306,0.5988,0.0603,49.23789101,-123.03210410,0.00000000,
10.2500,0.0821,-0.8181,-0.2831,-0.7815,1.8219,-1.0823,0.2306,0.5988,0.0603,49.23789101,-123.03210410,0.00000000,
10.2510,0.1585,-0.8502,-0.3207,-0.7815,1.8219,-1.0823,0.2306,0.5988,0.0603,49.23789101,-123.03210410,0.00000000,
10.2940,0.1585,-0.8502,-0.3207,-0.7815,1.8219,-1.0823,0.1136,0.4596,0.1851,49.23789101,-123.03210410,0.00000000,
10.2950,0.1585,-0.8502,-0.3207,0.7434,0.7975,-2.8376,0.1136,0.4596,0.1851,49.23789101,-123.03210410,0.00000000,
10.3240,0.1585,-0.8502,-0.3207,0.7434,0.7975,-2.8376,-0.3005,0.4632,0.1302,49.23789101,-123.03210410,0.00000000,
10.3260,0.1944,-0.8995,-0.3016,0.7434,0.7975,-2.8376,-0.3005,0.4632,0.1302,49.23789101,-123.03210410,0.00000000,
10.3270,0.2355,-0.9380,-0.2548,0.7434,0.7975,-2.8376,-0.3005,0.4632,0.1302,49.23789101,-123.03210410,0.00000000,
10.3280,0.3111,-0.9737,-0.2203,0.7434,0.7975,-2.8376,-0.3005,0.4632,0.1302,49.23789101,-123.03210410,0.00000000,
10.3280,0.4235,-1.0100,-0.1320,0.7434,0.7975,-2.8376,-0.3005,0.4632,0.1302,49.23789101,-123.03210410,0.00000000,
10.3740,0.4235,-1.0100,-0.1320,2.6178,-0.3715,-1.2790,-0.3005,0.4632,0.1302,49.23789101,-123.03210410,0.00000000,
10.3940,0.4235,-1.0100,-0.1320,2.6178,-0.3715,-1.2790,-0.3800,0.1193,-0.1373,49.23789101,-123.03210410,0.00000000,
10.3950,0.4235,-1.0100,-0.1320,2.3986,-1.8509,-0.6475,-0.3800,0.1193,-0.1373,49.23789101,-123.03210410,0.00000000,
10.3960,0.4673,-1.0657,-0.0418,2.3986,-1.8509,-0.6475,-0.3800,0.1193,-0.1373,49.23789101,-123.03210410,0.00000000,
10.3970,0.4451,-1.0853,-0.1273,2.3986,-1.8509,-0.6475,-0.3800,0.1193,-0.1373,49.23789101,-123.03210410,0.00000000,
10.3970,0.2890,-1.1661,-0.1675,2.3986,-1.8509,-0.6475,-0.3800,0.1193,-0.1373,49.23789101,-123.03210410,0.00000000,
10.4430,0.2890,-1.1661,-0.1675,2.3986,-1.8509,-0.6475,-0.2065,-0.0347,-0.2431,49.23789101,-123.03210410,0.00000000,
10.4750,0.1804,-1.3669,-0.0565,2.3986,-1.8509,-0.6475,-0.2065,-0.0347,-0.2431,49.23789101,-123.03210410,0.00000000,
10.4760,0.2221,-1.5612,0.1262,2.3986,-1.8509,-0.6475,-0.2065,-0.0347,-0.2431,49.23789101,-123.03210410,0.00000000,
10.4770,0.2792,-1.5347,0.2759,2.3986,-1.8509,-0.6475,-0.2065,-0.0347,-0.2431,49.23789101,-123.03210410,0.00000000,
10.4780,0.1943,-1.1309,0.1245,2.3986,-1.8509,-0.6475,-0.2065,-0.0347,-0.2431,49.23789101,-123.03210410,0.00000000,
10.4780,0.1943,-1.1309,0.1245,1.0833,-5.0153,2.1539,-0.2065,-0.0347,-0.2431,49.23789101,-123.03210410,0.00000000,
10.5160,0.1943,-1.1309,0.1245,1.0833,-5.0153,2.1539,-0.1927,0.1770,-0.0207,49.23789101,-123.03210410,0.00000000,
10.5170,0.1943,-1.1309,0.1245,-2.4136,0.2789,2.4575,-0.1927,0.1770,-0.0207,49.23789101,-123.03210410,0.00000000,
10.5500,0.0023,-0.8859,0.1075,-2.4136,0.2789,2.4575,-0.1927,0.1770,-0.0207,49.23789101,-123.03210410,0.00000000,
10.5510,-0.2361,-0.8965,0.2291,-2.4136,0.2789,2.4575,-0.1927,0.1770,-0.0207,49.23789101,-123.03210410,0.00000000,
10.5520,-0.4908,-1.0674,0.3728,-2.4136,0.2789,2.4575,-0.1927,0.1770,-0.0207,49.23789101,-123.03210410,0.00000000,
10.5520,-0.4649,-1.1719,0.2562,-2.4136,0.2789,2.4575,-0.1927,0.1770,-0.0207,49.23789101,-123.03210410,0.00000000,
10.5930,-0.4649,-1.1719,0.2562,-2.4136,0.2789,2.4575,0.2625,0.2698,0.4569,49.23789101,-123.03210410,0.00000000,
10.5950,-0.4649,-1.1719,0.2562,-3.9074,-1.1935,1.4520,0.2625,0.2698,0.4569,49.23789101,-123.03210410,0.00000000,
10.6280,-0.4649,-1.1719,0.2562,-3.9074,-1.1935,1.4520,-0.0081,-1.3172,0.0748,49.23789101,-123.03210410,0.00000000,
10.6290,-0.1965,-1.0459,-0.0833,-3.9074,-1.1935,1.4520,-0.0081,-1.3172,0.0748,49.23789101,-123.03210410,0.00000000,
10.6300,0.0496,-1.0028,-0.1386,-3.9074,-1.1935,1.4520,-0.0081,-1.3172,0.0748,49.23789101,-123.03210410,0.00000000,
10.6300,0.1749,-0.9497,-0.1274,-3.9074,-1.1935,1.4520,-0.0081,-1.3172,0.0748,49.23789101,-123.03210410,0.00000000,
10.6310,0.2153,-0.8626,-0.1617,-3.9074,-1.1935,1.4520,-0.0081,-1.3172,0.0748,49.23789101,-123.03210410,0.00000000,
10.6570,0.2153,-0.8626,-0.1617,0.9946,0.5659,-1.0428,-0.0081,-1.3172,0.0748,49.23789101,-123.03210410,0.00000000,
10.7030,0.1929,-0.8183,-0.2684,0.9946,0.5659,-1.0428,-0.0081,-1.3172,0.0748,49.23789101,-123.03210410,0.00000000,
10.7040,0.1448,-0.7556,-0.2064,0.9946,0.5659,-1.0428,-0.0081,-1.3172,0.0748,49.23789101,-123.03210410,0.00000000,
10.7050,0.0879,-0.6840,-0.1185,0.9946,0.5659,-1.0428,-0.0081,-1.3172,0.0748,49.23789101,-123.03210410,0.00000000,
10.7060,0.0406,-0.6151,-0.1081,0.9946,0.5659,-1.0428,-0.0081,-1.3172,0.0748,49.23789101,-123.03210410,0.00000000,
10.7060,0.0406,-0.6151,-0.1081,0.9946,0.5659,-1.0428,-0.3143,-1.1562,0.3612,49.23789101,-123.03210410,0.00000000,
10.7090,0.0406,-0.6151,-0.1081,0.6049,2.4091,-0.8720,-0.3143,-1.1562,0.3612,49.23789101,-123.03210410,0.00000000,
10.7530,0.0406,-0.6151,-0.1081,0.6049,2.4091,-0.8720,-0.4226,-0.4858,0.2313,49.23789101,-123.03210410,0.00000000,
10.7550,0.0406,-0.6151,-0.1081,0.0382,3.2380,0.2847,-0.4226,-0.4858,0.2313,49.23789101,-123.03210410,0.00000000,
10.7810,0.0311,-0.6035,-0.0883,0.0382,3.2380,0.2847,-0.4226,-0.4858,0.2313,49.23789101,-123.03210410,0.00000000,
10.7830,0.0566,-0.6442,-0.0699,0.0382,3.2380,0.2847,-0.4226,-0.4858,0.2313,49.23789101,-123.03210410,0.00000000,
10.7830,0.0739,-0.6776,-0.0513,0.0382,3.2380,0.2847,-0.4226,-0.4858,0.2313,49.23789101,-123.03210410,0.00000000,
10.8230,0.0739,-0.6776,-0.0513,0.0382,3.2380,0.2847,0.0999,-0.5533,-0.1799,49.23789101,-123.03210410,0.00000000,
10.8250,0.0739,-0.6776,-0.0513,0.0963,1.9266,-1.1100,0.0999,-0.5533,-0.1799,49.23789101,-123.03210410,0.00000000,
10.8590,0.0599,-0.7424,-0.1569,0.0963,1.9266,-1.1100,0.0999,-0.5533,-0.1799,49.23789101,-123.03210410,0.00000000,
10.8600,0.0468,-0.7799,-0.2804,0.0963,1.9266,-1.1100,0.0999,-0.5533,-0.1799,49.23789101,-123.03210410,0.00000000,
10.8620,0.0896,-0.8178,-0.3850,0.0963,1.9266,-1.1100,0.0999,-0.5533,-0.1799,49.23789101,-123.03210410,0.00000000,
10.8630,0.1385,-0.8463,-0.4087,0.0963,1.9266,-1.1100,0.0999,-0.5533,-0.1799,49.23789101,-123.03210410,0.00000000,
10.9040,0.1385,-0.8463,-0.4087,-0.0142,0.3551,-2.7245,0.0999,-0.5533,-0.1799,49.23789101,-123.03210410,0.00000000,
10.9050,0.1385,-0.8463,-0.4087,-0.0142,0.3551,-2.7245,-0.1902,-0.7354,-0.2701,49.23789101,-123.03210410,0.00000000,
10.9360,0.1385,-0.8463,-0.4087,-0.0142,0.3551,-2.7245,-0.2074,-0.5407,0.0899,49.23789101,-123.03210410,0.00000000,
10.9370,0.0432,-0.9286,-0.3865,-0.0142,0.3551,-2.7245,-0.2074,-0.5407,0.0899,49.23789101,-123.03210410,0.00000000,
10.9380,-0.1323,-1.1599,-0.4259,-0.0142,0.3551,-2.7245,-0.2074,-0.5407,0.0899,49.23789101,-123.03210410,0.00000000,
10.9390,-0.0975,-1.1257,-0.4794,-0.0142,0.3551,-2.7245,-0.2074,-0.5407,0.0899,49.23789101,-123.03210410,0.00000000,
10.9400,0.0007,-1.0073,-0.5452,-0.0142,0.3551,-2.7245,-0.2074,-0.5407,0.0899,49.23789101,-123.03210410,0.00000000,
10.9410,0.0007,-1.0073,-0.5452,-0.9191,-1.2693,-3.4113,-0.2074,-0.5407,0.0899,49.23789101,-123.03210410,0.00000000,
10.9830,0.0007,-1.0073,-0.5452,-0.9191,-1.2693,-3.4113,-0.7745,-0.6625,0.2167,49.23789101,-123.03210410,0.00000000,
11.0140,0.0429,-1.0646,-0.4201,-0.9191,-1.2693,-3.4113,-0.7745,-0.6625,0.2167,49.23789101,-123.03210410,0.00000000,
11.0150,-0.0323,-1.3112,-0.0236,-0.9191,-1.2693,-3.4113,-0.7745,-0.6625,0.2167,49.23789101,-123.03210410,0.00000000,
11.0160,-0.0428,-1.6213,0.1918,-0.9191,-1.2693,-3.4113,-0.7745,-0.6625,0.2167,49.23789101,-123.03210410,0.00000000,
11.0160,0.2265,-1.5933,0.0095,-0.9191,-1.2693,-3.4113,-0.7745,-0.6625,0.2167,49.23789101,-123.03210410,0.00000000,
11.0170,0.2265,-1.5933,0.0095,-0.2244,-4.9915,1.7797,-0.7745,-0.6625,0.2167,49.23789101,-123.03210410,0.00000000,
11.0630,0.2265,-1.5933,0.0095,-0.2244,-4.9915,1.7797,-0.0901,-0.0562,-0.1173,49.23789101,-123.03210410,0.00000000,
11.0640,0.2265,-1.5933,0.0095,1.8938,-0.5123,4.0815,-0.0901,-0.0562,-0.1173,49.23789101,-123.03210410,0.00000000,
11.0910,0.3347,-0.8720,0.2324,1.8938,-0.5123,4.0815,-0.0901,-0.0562,-0.1173,49.23789101,-123.03210410,0.00000000,
11.0920,0.1678,-0.9256,0.3370,1.8938,-0.5123,4.0815,-0.0901,-0.0562,-0.1173,49.23789101,-123.03210410,0.00000000,
11.0930,0.0865,-1.0866,0.2507,1.8938,-0.5123,4.0815,-0.0901,-0.0562,-0.1173,49.23789101,-123.03210410,0.00000000,
11.0940,0.1862,-1.1513,0.3515,1.8938,-0.5123,4.0815,-0.0901,-0.0562,-0.1173,49.23789101,-123.03210410,0.00000000,
11.1330,0.1862,-1.1513,0.3515,0.9101,-1.4129,4.6345,-0.0901,-0.0562,-0.1173,49.23789101,-123.03210410,0.00000000,
11.1340,0.1862,-1.1513,0.3515,0.9101,-1.4129,4.6345,0.6986,-0.6420,-0.3355,49.23789101,-123.03210410,0.00000000,
11.1690,0.1862,-1.1513,0.3515,0.9101,-1.4129,4.6345,0.9924,-0.1584,-0.3839,49.23789101,-123.03210410,0.00000000,
11.1700,0.1611,-1.0875,0.4484,0.9101,-1.4129,4.6345,0.9924,-0.1584,-0.3839,49.23789101,-123.03210410,0.00000000,
11.1710,0.1047,-1.0515,0.2054,0.9101,-1.4129,4.6345,0.9924,-0.1584,-0.3839,49.23789101,-123.03210410,0.00000000,
11.1720,-0.0051,-1.0837,-0.0795,0.9101,-1.4129,4.6345,0.9924,-0.1584,-0.3839,49.23789101,-123.03210410,0.00000000,
11.1720,-0.0426,-1.0439,-0.1464,0.9101,-1.4129,4.6345,0.9924,-0.1584,-0.3839,49.23789101,-123.03210410,0.00000000,
11.2130,-0.0426,-1.0439,-0.1464,-0.8483,-0.7271,-0.0387,0.9924,-0.1584,-0.3839,49.23789101,-123.03210410,0.00000000,
11.2470,-0.0426,-1.0439,-0.1464,0.1963,2.2450,-0.8285,0.9924,-0.1584,-0.3839,49.23789101,-123.03210410,0.00000000,
11.2490,-0.0426,-1.0439,-0.1464,0.1963,2.2450,-0.8285,0.2915,-0.1671,-0.4400,49.23789101,-123.03210410,0.00000000,
11.2500,-0.0130,-0.9065,-0.1800,0.1963,2.2450,-0.8285,0.2915,-0.1671,-0.4400,49.23789101,-123.03210410,0.00000000,
11.2510,0.0803,-0.7694,-0.2073,0.1963,2.2450,-0.8285,0.2915,-0.1671,-0.4400,49.23789101,-123.03210410,0.00000000,
11.2520,0.1719,-0.6759,-0.1109,0.1963,2.2450,-0.8285,0.2915,-0.1671,-0.4400,49.23789101,-123.03210410,0.00000000,
11.2530,0.2339,-0.6427,-0.0101,0.1963,2.2450,-0.8285,0.2915,-0.1671,-0.4400,49.23789101,-123.03210410,0.00000000,
11.2920,0.2339,-0.6427,-0.0101,0.1963,2.2450,-0.8285,0.5201,0.0199,-0.3415,49.23789101,-123.03210410,0.00000000,
11.2940,0.2339,-0.6427,-0.0101,0.8842,2.7793,0.0834,0.5201,0.0199,-0.3415,49.23789101,-123.03210410,0.00000000,
11.3260,0.2282,-0.6459,0.0017,0.8842,2.7793,0.0834,0.5201,0.0199,-0.3415,49.23789101,-123.03210410,0.00000000,
11.3270,0.2047,-0.6889,-0.0379,0.8842,2.7793,0.0834,0.5201,0.0199,-0.3415,49.23789101,-123.03210410,0.00000000,
11.3280,0.1480,-0.7485,-0.0600,0.8842,2.7793,0.0834,0.5201,0.0199,-0.3415,49.23789101,-123.03210410,0.00000000,
11.3290,0.0814,-0.7949,-0.0709,0.8842,2.7793,0.0834,0.5201,0.0199,-0.3415,49.23789101,-123.03210410,0.00000000,
11.3730,0.0814,-0.7949,-0.0709,0.8842,2.7793,0.0834,0.4378,0.0983,-0.0422,49.23789101,-123.03210410,0.00000000,
11.3750,0.0814,-0.7949,-0.0709,-0.5769,1.4378,-0.8760,0.4378,0.0983,-0.0422,49.23789101,-123.03210410,0.00000000,
11.4030,0.0814,-0.7949,-0.0709,-0.5769,1.4378,-0.8760,0.2217,0.0266,0.1031,49.23789101,-123.03210410,0.00000000,
11.4040,0.0364,-0.8257,-0.1100,-0.5769,1.4378,-0.8760,0.2217,0.0266,0.1031,49.23789101,-123.03210410,0.00000000,
11.4040,0.0124,-0.8637,-0.1661,-0.5769,1.4378,-0.8760,0.2217,0.0266,0.1031,49.23789101,-123.03210410,0.00000000,
11.4050,0.0439,-0.9046,-0.2517,-0.5769,1.4378,-0.8760,0.2217,0.0266,0.1031,49.23789101,-123.03210410,0.00000000,
11.4060,0.1348,-0.9192,-0.3341,-0.5769,1.4378,-0.8760,0.2217,0.0266,0.1031,49.23789101,-123.03210410,0.00000000,
11.4300,0.1348,-0.9192,-0.3341,-0.1827,0.4892,-2.8121,0.2217,0.0266,0.1031,49.23789101,-123.03210410,0.00000000,
11.4730,0.1348,-0.9192,-0.3341,-0.1827,0.4892,-2.8121,-0.2199,0.0886,0.0487,49.23789101,-123.03210410,0.00000000,
11.4740,0.1348,-0.9192,-0.3341,1.9709,-0.2156,-2.4035,-0.2199,0.0886,0.0487,49.23789101,-123.03210410,0.00000000,
11.4760,0.2283,-0.9098,-0.3809,1.9709,-0.2156,-2.4035,-0.2199,0.0886,0.0487,49.23789101,-123.03210410,0.00000000,
11.4770,0.2849,-0.9334,-0.3538,1.9709,-0.2156,-2.4035,-0.2199,0.0886,0.0487,49.23789101,-123.03210410,0.00000000,
11.4780,0.3429,-1.0166,-0.2001,1.9709,-0.2156,-2.4035,-0.2199,0.0886,0.0487,49.23789101,-123.03210410,0.00000000,
11.5230,0.3429,-1.0166,-0.2001,1.9709,-0.2156,-2.4035,-0.2468,-0.2243,-0.0290,49.23789101,-123.03210410,0.00000000,
11.5510,0.4237,-1.0677,-0.0668,1.9709,-0.2156,-2.4035,-0.2468,-0.2243,-0.0290,49.23789101,-123.03210410,0.00000000,
11.5530,0.4528,-1.1279,0.0428,1.9709,-0.2156,-2.4035,-0.2468,-0.2243,-0.0290,49.23789101,-123.03210410,0.00000000,
11.5540,0.4055,-1.2633,0.1399,1.9709,-0.2156,-2.4035,-0.2468,-0.2243,-0.0290,49.23789101,-123.03210410,0.00000000,
11.5580,0.3458,-1.4113,0.2142,1.9709,-0.2156,-2.4035,-0.2468,-0.2243,-0.0290,49.23789101,-123.03210410,0.00000000,
11.5600,0.3458,-1.4113,0.2142,2.9084,-2.4085,1.2121,-0.2468,-0.2243,-0.0290,49.23789101,-123.03210410,0.00000000,
11.5920,0.3458,-1.4113,0.2142,2.9084,-2.4085,1.2121,0.3018,-0.3647,-0.0326,49.23789101,-123.03210410,0.00000000,
11.5930,0.3458,-1.4113,0.2142,1.4014,-4.8431,-0.6499,0.3018,-0.3647,-0.0326,49.23789101,-123.03210410,0.00000000,
11.6260,0.3382,-1.5188,0.0589,1.4014,-4.8431,-0.6499,0.3018,-0.3647,-0.0326,49.23789101,-123.03210410,0.00000000,
11.6270,0.2620,-1.4809,-0.2402,1.4014,-4.8431,-0.6499,0.3018,-0.3647,-0.0326,49.23789101,-123.03210410,0.00000000,
11.6280,0.0260,-1.2480,-0.2654,1.4014,-4.8431,-0.6499,0.3018,-0.3647,-0.0326,49.23789101,-123.03210410,0.00000000,
11.6290,-0.1664,-1.0006,0.0650,1.4014,-4.8431,-0.6499,0.3018,-0.3647,-0.0326,49.23789101,-123.03210410,0.00000000,
11.6720,-0.1664,-1.0006,0.0650,1.4014,-4.8431,-0.6499,-0.4448,0.2670,0.1874,49.23789101,-123.03210410,0.00000000,
11.6740,-0.1664,-1.0006,0.0650,-3.0734,-0.1330,2.1620,-0.4448,0.2670,0.1874,49.23789101,-123.03210410,0.00000000,
11.7030,-0.1664,-1.0006,0.0650,-3.0734,-0.1330,2.1620,-0.1192,0.0353,0.4214,49.23789101,-123.03210410,0.00000000,
11.7040,-0.2761,-0.9187,0.3421,-3.0734,-0.1330,2.1620,-0.1192,0.0353,0.4214,49.23789101,-123.03210410,0.00000000,
11.7050,-0.3426,-0.8793,0.4698,-3.0734,-0.1330,2.1620,-0.1192,0.0353,0.4214,49.23789101,-123.03210410,0.00000000,
11.7060,-0.3618,-0.9094,0.5018,-3.0734,-0.1330,2.1620,-0.1192,0.0353,0.4214,49.23789101,-123.03210410,0.00000000,
11.7070,-0.2960,-0.9848,0.3918,-3.0734,-0.1330,2.1620,-0.1192,0.0353,0.4214,49.23789101,-123.03210410,0.00000000,
11.7530,-0.2960,-0.9848,0.3918,-3.8210,0.2675,4.4283,-0.1192,0.0353,0.4214,49.23789101,-123.03210410,0.00000000,
11.7800,-0.2960,-0.9848,0.3918,-3.8210,0.2675,4.4283,0.3028,-0.6065,0.2501,49.23789101,-123.03210410,0.00000000,
11.7840,-0.2960,-0.9848,0.3918,0.0166,0.0046,-1.2020,0.3028,-0.6065,0.2501,49.23789101,-123.03210410,0.00000000,
11.7840,-0.1484,-1.0185,0.1579,0.0166,0.0046,-1.2020,0.3028,-0.6065,0.2501,49.23789101,-123.03210410,0.00000000,
11.7850,0.0250,-1.0117,-0.0816,0.0166,0.0046,-1.2020,0.3028,-0.6065,0.2501,49.23789101,-123.03210410,0.00000000,
11.7860,0.1400,-0.9514,-0.2394,0.0166,0.0046,-1.2020,0.3028,-0.6065,0.2501,49.23789101,-123.03210410,0.00000000,
11.8220,0.1400,-0.9514,-0.2394,0.0166,0.0046,-1.2020,-0.2087,-0.7866,0.2886,49.23789101,-123.03210410,0.00000000,
11.8580,0.1480,-0.8485,-0.3225,0.0166,0.0046,-1.2020,-0.2087,-0.7866,0.2886,49.23789101,-123.03210410,0.00000000,
11.8600,0.1138,-0.7780,-0.2820,0.0166,0.0046,-1.2020,-0.2087,-0.7866,0.2886,49.23789101,-123.03210410,0.00000000,
11.8600,0.0551,-0.7223,-0.1950,0.0166,0.0046,-1.2020,-0.2087,-0.7866,0.2886,49.23789101,-123.03210410,0.00000000,
11.8610,0.0071,-0.6855,-0.1483,0.0166,0.0046,-1.2020,-0.2087,-0.7866,0.2886,49.23789101,-123.03210410,0.00000000,
11.8620,0.0071,-0.6855,-0.1483,0.3769,2.1266,-1.9024,-0.2087,-0.7866,0.2886,49.23789101,-123.03210410,0.00000000,
11.9020,0.0071,-0.6855,-0.1483,0.3769,2.1266,-1.9024,-0.3241,-0.5692,0.1865,49.23789101,-123.03210410,0.00000000,
11.9030,0.0071,-0.6855,-0.1483,-0.2467,2.8025,-0.2989,-0.3241,-0.5692,0.1865,49.23789101,-123.03210410,0.00000000,
11.9370,0.0024,-0.6757,-0.1095,-0.2467,2.8025,-0.2989,-0.3241,-0.5692,0.1865,49.23789101,-123.03210410,0.00000000,
11.9380,0.0089,-0.6782,-0.0700,-0.2467,2.8025,-0.2989,-0.3241,-0.5692,0.1865,49.23789101,-123.03210410,0.00000000,
11.9390,0.0346,-0.6793,-0.0744,-0.2467,2.8025,-0.2989,-0.3241,-0.5692,0.1865,49.23789101,-123.03210410,0.00000000,
11.9400,0.0803,-0.6916,-0.1009,-0.2467,2.8025,-0.2989,-0.3241,-0.5692,0.1865,49.23789101,-123.03210410,0.00000000,
11.9520,0.0803,-0.6916,-0.1009,-0.2467,2.8025,-0.2989,0.0379,-0.5156,-0.1075,49.23789101,-123.03210410,0.00000000,
11.9530,0.0803,-0.6916,-0.1009,0.5088,2.3799,-0.7376,0.0379,-0.5156,-0.1075,49.23789101,-123.03210410,0.00000000,
12.0020,0.0803,-0.6916,-0.1009,0.5088,2.3799,-0.7376,0.0314,-0.7189,-0.2778,49.23789101,-123.03210410,0.00000000,
12.0140,0.1120,-0.7314,-0.1532,0.5088,2.3799,-0.7376,0.0314,-0.7189,-0.2778,49.23789101,-123.03210410,0.00000000,
12.0150,0.1346,-0.7852,-0.2756,0.5088,2.3799,-0.7376,0.0314,-0.7189,-0.2778,49.23789101,-123.03210410,0.00000000,
12.0160,0.1604,-0.8195,-0.4213,0.5088,2.3799,-0.7376,0.0314,-0.7189,-0.2778,49.23789101,-123.03210410,0.00000000,
12.0170,0.1054,-0.9178,-0.3987,0.5088,2.3799,-0.7376,0.0314,-0.7189,-0.2778,49.23789101,-123.03210410,0.00000000,
12.0170,0.1054,-0.9178,-0.3987,0.5348,0.7155,-3.1023,0.0314,-0.7189,-0.2778,49.23789101,-123.03210410,0.00000000,
12.0620,0.1054,-0.9178,-0.3987,0.5348,0.7155,-3.1023,-0.0732,-0.3480,-0.2295,49.23789101,-123.03210410,0.00000000,
12.0920,-0.0532,-1.0686,-0.3496,0.5348,0.7155,-3.1023,-0.0732,-0.3480,-0.2295,49.23789101,-123.03210410,0.00000000,
12.0940,-0.1854,-1.1306,-0.3781,0.5348,0.7155,-3.1023,-0.0732,-0.3480,-0.2295,49.23789101,-123.03210410,0.00000000,
12.0950,-0.1980,-1.0225,-0.3435,0.5348,0.7155,-3.1023,-0.0732,-0.3480,-0.2295,49.23789101,-123.03210410,0.00000000,
12.0960,-0.1444,-0.9276,-0.3755,0.5348,0.7155,-3.1023,-0.0732,-0.3480,-0.2295,49.23789101,-123.03210410,0.00000000,
12.0970,-0.1444,-0.9276,-0.3755,-2.2774,-0.9655,-2.7483,-0.0732,-0.3480,-0.2295,49.23789101,-123.03210410,0.00000000,
12.1320,-0.1444,-0.9276,-0.3755,-2.2774,-0.9655,-2.7483,-0.5817,-0.6193,-0.0349,49.23789101,-123.03210410,0.00000000,
12.1330,-0.1444,-0.9276,-0.3755,-1.6040,-2.3187,0.4790,-0.5817,-0.6193,-0.0349,49.23789101,-123.03210410,0.00000000,
12.1690,-0.1497,-1.0303,-0.2013,-1.6040,-2.3187,0.4790,-0.5817,-0.6193,-0.0349,49.23789101,-123.03210410,0.00000000,
12.1710,-0.0663,-1.3412,0.0955,-1.6040,-2.3187,0.4790,-0.5817,-0.6193,-0.0349,49.23789101,-123.03210410,0.00000000,
12.1710,-0.0741,-1.5638,0.1089,-1.6040,-2.3187,0.4790,-0.5817,-0.6193,-0.0349,49.23789101,-123.03210410,0.00000000,
12.1720,0.2339,-1.3958,-0.1397,-1.6040,-2.3187,0.4790,-0.5817,-0.6193,-0.0349,49.23789101,-123.03210410,0.00000000,
12.2130,0.2339,-1.3958,-0.1397,-1.6040,-2.3187,0.4790,-0.2761,-1.1491,0.1196,49.23789101,-123.03210410,0.00000000,
12.2140,0.2339,-1.3958,-0.1397,1.4913,-2.8807,2.1533,-0.2761,-1.1491,0.1196,49.23789101,-123.03210410,0.00000000,
12.2460,0.2339,-1.3958,-0.1397,1.4913,-2.8807,2.1533,0.6379,0.0591,-0.1597,49.23789101,-123.03210410,0.00000000,
12.2480,0.2792,-1.0294,0.1574,1.4913,-2.8807,2.1533,0.6379,0.0591,-0.1597,49.23789101,-123.03210410,0.00000000,
12.2480,0.2037,-1.0830,0.5253,1.4913,-2.8807,2.1533,0.6379,0.0591,-0.1597,49.23789101,-123.03210410,0.00000000,
12.2490,0.2245,-1.0957,0.5536,1.4913,-2.8807,2.1533,0.6379,0.0591,-0.1597,49.23789101,-123.03210410,0.00000000,
12.2500,0.2240,-1.0190,0.5173,1.4913,-2.8807,2.1533,0.6379,0.0591,-0.1597,49.23789101,-123.03210410,0.00000000,
12.2920,0.2240,-1.0190,0.5173,1.4476,-0.9114,5.7542,0.6379,0.0591,-0.1597,49.23789101,-123.03210410,0.00000000,
12.3260,0.2240,-1.0190,0.5173,1.4476,-0.9114,5.7542,0.6341,0.5306,-0.0612,49.23789101,-123.03210410,0.00000000,
12.3270,0.2240,-1.0190,0.5173,-1.6868,-0.5262,0.3595,0.6341,0.5306,-0.0612,49.23789101,-123.03210410,0.00000000,
12.3290,0.0928,-1.0371,0.3118,-1.6868,-0.5262,0.3595,0.6341,0.5306,-0.0612,49.23789101,-123.03210410,0.00000000,
12.3300,-0.0907,-1.0343,0.0592,-1.6868,-0.5262,0.3595,0.6341,0.5306,-0.0612,49.23789101,-123.03210410,0.00000000,
12.3310,-0.1763,-1.0354,-0.1099,-1.6868,-0.5262,0.3595,0.6341,0.5306,-0.0612,49.23789101,-123.03210410,0.00000000,
12.3320,-0.1738,-0.9408,-0.1889,-1.6868,-0.5262,0.3595,0.6341,0.5306,-0.0612,49.23789101,-123.03210410,0.00000000,
12.3720,-0.1738,-0.9408,-0.1889,-1.6868,-0.5262,0.3595,-0.1318,0.7554,-0.1070,49.23789101,-123.03210410,0.00000000,
12.3730,-0.1738,-0.9408,-0.1889,-0.5574,1.6308,-1.0449,-0.1318,0.7554,-0.1070,49.23789101,-123.03210410,0.00000000,
12.4030,-0.0676,-0.8441,-0.1798,-0.5574,1.6308,-1.0449,-0.1318,0.7554,-0.1070,49.23789101,-123.03210410,0.00000000,
12.4040,0.0906,-0.7501,-0.1282,-0.5574,1.6308,-1.0449,-0.1318,0.7554,-0.1070,49.23789101,-123.03210410,0.00000000,
12.4060,0.1948,-0.7007,-0.1005,-0.5574,1.6308,-1.0449,-0.1318,0.7554,-0.1070,49.23789101,-123.03210410,0.00000000,
12.4070,0.2307,-0.7027,-0.0455,-0.5574,1.6308,-1.0449,-0.1318,0.7554,-0.1070,49.23789101,-123.03210410,0.00000000,
12.4530,0.2307,-0.7027,-0.0455,1.5269,2.4107,0.0231,-0.1318,0.7554,-0.1070,49.23789101,-123.03210410,0.00000000,
12.4540,0.2307,-0.7027,-0.0455,1.5269,2.4107,0.0231,0.2482,0.6235,-0.0968,49.23789101,-123.03210410,0.00000000,
12.4730,0.2478,-0.7286,0.0059,1.5269,2.4107,0.0231,0.2482,0.6235,-0.0968,49.23789101,-123.03210410,0.00000000,
12.4750,0.2039,-0.7516,0.0106,1.5269,2.4107,0.0231,0.2482,0.6235,-0.0968,49.23789101,-123.03210410,0.00000000,
12.4760,0.1282,-0.8074,-0.0030,1.5269,2.4107,0.0231,0.2482,0.6235,-0.0968,49.23789101,-123.03210410,0.00000000,
12.5220,0.1282,-0.8074,-0.0030,1.5269,2.4107,0.0231,0.2856,0.5251,0.0145,49.23789101,-123.03210410,0.00000000,
12.5230,0.1282,-0.8074,-0.0030,0.2827,1.1415,-0.3076,0.2856,0.5251,0.0145,49.23789101,-123.03210410,0.00000000,
12.5510,0.1282,-0.8074,-0.0030,0.2827,1.1415,-0.3076,0.1592,0.3575,0.0711,49.23789101,-123.03210410,0.00000000,
12.5520,0.0635,-0.8883,-0.0636,0.2827,1.1415,-0.3076,0.1592,0.3575,0.0711,49.23789101,-123.03210410,0.00000000,
12.5520,0.0650,-0.9194,-0.1502,0.2827,1.1415,-0.3076,0.1592,0.3575,0.0711,49.23789101,-123.03210410,0.00000000,
12.5530,0.1213,-0.9137,-0.2011,0.2827,1.1415,-0.3076,0.1592,0.3575,0.0711,49.23789101,-123.03210410,0.00000000,
12.5530,0.1733,-0.9022,-0.1859,0.2827,1.1415,-0.3076,0.1592,0.3575,0.0711,49.23789101,-123.03210410,0.00000000,
12.5920,0.1733,-0.9022,-0.1859,0.6887,0.5179,-1.7652,0.1592,0.3575,0.0711,49.23789101,-123.03210410,0.00000000,
12.6280,0.1733,-0.9022,-0.1859,0.6887,0.5179,-1.7652,0.0225,0.3828,0.1189,49.23789101,-123.03210410,0.00000000,
12.6290,0.1805,-0.9041,-0.1675,0.6887,0.5179,-1.7652,0.0225,0.3828,0.1189,49.23789101,-123.03210410,0.00000000,
12.6300,0.1333,-0.9294,-0.1896,0.6887,0.5179,-1.7652,0.0225,0.3828,0.1189,49.23789101,-123.03210410,0.00000000,
12.6310,0.1188,-0.9217,-0.2177,0.6887,0.5179,-1.7652,0.0225,0.3828,0.1189,49.23789101,-123.03210410,0.00000000,
12.6310,0.1763,-0.9285,-0.2391,0.6887,0.5179,-1.7652,0.0225,0.3828,0.1189,49.23789101,-123.03210410,0.00000000,
12.6320,0.1763,-0.9285,-0.2391,0.7148,0.3859,-1.9320,0.0225,0.3828,0.1189,49.23789101,-123.03210410,0.00000000,
12.6720,0.1763,-0.9285,-0.2391,0.7148,0.3859,-1.9320,-0.1467,0.2723,0.0917,49.23789101,-123.03210410,0.00000000,
12.6730,0.1763,-0.9285,-0.2391,1.8046,-0.0856,-0.9740,-0.1467,0.2723,0.0917,49.23789101,-123.03210410,0.00000000,
12.7020,0.2335,-0.9624,-0.1705,1.8046,-0.0856,-0.9740,-0.1467,0.2723,0.0917,49.23789101,-123.03210410,0.00000000,
12.7030,0.2736,-0.9827,-0.0558,1.8046,-0.0856,-0.9740,-0.1467,0.2723,0.0917,49.23789101,-123.03210410,0.00000000,
12.7040,0.2847,-0.9911,-0.0313,1.8046,-0.0856,-0.9740,-0.1467,0.2723,0.0917,49.23789101,-123.03210410,0.00000000,
12.7340,0.2847,-0.9911,-0.0313,1.8046,-0.0856,-0.9740,-0.2495,0.4057,-0.0479,49.23789101,-123.03210410,0.00000000,
12.7350,0.2847,-0.9911,-0.0313,0.4099,-0.7566,-2.3913,-0.2495,0.4057,-0.0479,49.23789101,-123.03210410,0.00000000,
12.7790,0.1944,-0.9955,-0.2355,0.4099,-0.7566,-2.3913,-0.2495,0.4057,-0.0479,49.23789101,-123.03210410,0.00000000,
12.7800,0.0169,-1.0604,-0.3835,0.4099,-0.7566,-2.3913,-0.2495,0.4057,-0.0479,49.23789101,-123.03210410,0.00000000,
12.7800,-0.0327,-1.1815,-0.3506,0.4099,-0.7566,-2.3913,-0.2495,0.4057,-0.0479,49.23789101,-123.03210410,0.00000000,
